Duration,TargetShape,Type,acc,accuracy,average_response_time,avg_rt,background,bidi,block_size,browser_codename,browser_name,browser_version,canvas_backend,clock_backend,color_backend,compensation,coordinates,correct,correct_difficult_practice_resp,correct_difficult_resp,correct_easy_practice_resp,correct_easy_resp,correct_number_input_1,count_Ethics,count_Goodbye,count_Goodbye_Contacts,count_Instructions,count_OpeningWelcome,count_Pop_tunes,count_break,count_difficult_practice,count_difficult_practice_loop,count_difficult_practice_resp,count_difficult_resp,count_difficult_task,count_difficult_task_loop,count_easy_practice,count_easy_practice_loop,count_easy_practice_resp,count_easy_resp,count_easy_task,count_easy_task_loop,count_experiment,count_experimentbegins,count_fixation,count_get_participant_num_1,count_get_sub_num_1,count_init_1,count_instructions_difficult,count_mindwanderingprobe,count_new_logger_3,count_new_sketchpad_5_1,count_number_input_1,count_osweb,count_practice_instruction,count_process_input_1,count_show_input_1,count_stimuli,cr,date_startdate,date_startdateUTC,date_starttime,datetime,description,disable_garbage_collection,empty_column,experiment_debug,experiment_parameters,experiment_path,experiment_pilot,experiment_taskname,experiment_taskversion,fname,font_bold,font_family,font_italic,font_size,font_underline,foreground,form_clicks,fullscreen,height,jatosStudyResultId,jatosVersion,keyboard_backend,mouse_backend,multichar_response,opensesame_codename,opensesame_version,penwidth,psychopy_waitblanking,queryParams_batchId,queryParams_generalMultiple,repeat_cycle,response,response_Instructions,response_OpeningWelcome,response_Pop_tunes,response_break,response_difficult_practice_resp,response_difficult_resp,response_easy_practice_resp,response_easy_resp,response_experimentbegins,response_instructions_difficult,response_mindwanderingprobe,response_new_sketchpad_5_1,response_number_input_1,response_practice_instruction,response_time,response_time_Instructions,response_time_OpeningWelcome,response_time_Pop_tunes,response_time_break,response_time_difficult_practice_resp,response_time_difficult_resp,response_time_easy_practice_resp,response_time_easy_resp,response_time_experimentbegins,response_time_instructions_difficult,response_time_mindwanderingprobe,response_time_new_sketchpad_5_1,response_time_number_input_1,response_time_practice_instruction,round_decimals,sampler_backend,screen_availableHeight,screen_availableWidth,screen_colorDepth,screen_height,screen_pixelDepth,screen_screenX,screen_screenY,screen_width,sessionid,sound_buf_size,sound_channels,sound_freq,sound_sample_size,start,subject_nr,subject_parity,system_os,time_Instructions,time_OpeningWelcome,time_Pop_tunes,time_break,time_difficult_practice_loop,time_difficult_practice_resp,time_difficult_resp,time_difficult_task_loop,time_easy_practice_loop,time_easy_practice_resp,time_easy_resp,time_easy_task_loop,time_experimentbegins,time_fixation,time_get_sub_num_1,time_init_1,time_instructions_difficult,time_mindwanderingprobe,time_new_logger_3,time_new_sketchpad_5_1,time_number_input_1,time_practice_instruction,time_process_input_1,time_show_input_1,time_stimuli,title,total_correct,total_response_time,total_responses,uniform_coordinates,width
3000,,Stimuli,50,50,1649,1649,black,no,3124,Mozilla,Netscape,"5.0 (Macintosh; Intel Mac OS X 10_15_7) AppleWebKit/537.36 (KHTML, like Gecko) Chrome/98.0.4758.109 Safari/537.36",psycho,psycho,psycho,0,uniform,1,,,1,1,,0,0,0,0,0,0,0,,0,,,,0,7,0,7,0,0,0,0,0,8,6,0,0,0,0,0,0,6,0,0,6,6,8,None,16/02/2022,16/02/2022,22:58:29,Wed Mar 16 2022 22:58:29 GMT+0000 (Greenwich Mean Time),The main experiment item,yes,,0,0,C:\Users\dcgraham\Downloads,0,0,0,Slide1.jpg,no,mono,no,18,no,white,no,no,768,23058,3.6.1,psycho,psycho,ae2204,osweb,1.4.0,1,yes,621,,0,None,space,space,None,,,,None,None,space,,space,,enter,space,3003,41998,10342,365,,,,3017,3003,4741,,13768,,893,43563,2,psycho,809,1440,30,900,30,106,44,1440,1.64747E+12,1024,2,48000,-16,experiment,18844,even,MacIntel,14661,4313,114022,,119,,,119,119,134853,143137,119,137872,142627,119,109,,56674,146141,,3402,70457,4309,3402,143137,New experiment,8,26379,16,yes,1024
3000,,Stimuli,53,53,1729,1729,black,no,3124,Mozilla,Netscape,"5.0 (Macintosh; Intel Mac OS X 10_15_7) AppleWebKit/537.36 (KHTML, like Gecko) Chrome/98.0.4758.109 Safari/537.36",psycho,psycho,psycho,0,uniform,1,,,1,1,,0,0,0,0,0,0,0,,0,,,,0,7,0,7,1,1,0,0,0,9,6,0,0,0,0,1,0,6,0,0,6,6,9,None,16/02/2022,16/02/2022,22:58:29,Wed Mar 16 2022 22:58:29 GMT+0000 (Greenwich Mean Time),The main experiment item,yes,,0,0,C:\Users\dcgraham\Downloads,0,0,0,Slide8.jpg,no,mono,no,18,no,white,no,no,768,23058,3.6.1,psycho,psycho,ae2204,osweb,1.4.0,1,yes,621,,0,None,space,space,None,,,,None,None,space,,space,,enter,space,3016,41998,10342,365,,,,3017,3016,4741,,13768,,893,43563,2,psycho,809,1440,30,900,30,106,44,1440,1.64747E+12,1024,2,48000,-16,experiment,18844,even,MacIntel,14661,4313,114022,,119,,,119,119,134853,146653,119,137872,146149,119,109,,56674,149669,,3402,70457,4309,3402,146653,New experiment,9,29395,17,yes,1024
3000,,Stimuli,56,56,1801,1801,black,no,3124,Mozilla,Netscape,"5.0 (Macintosh; Intel Mac OS X 10_15_7) AppleWebKit/537.36 (KHTML, like Gecko) Chrome/98.0.4758.109 Safari/537.36",psycho,psycho,psycho,0,uniform,1,,,1,1,,0,0,0,0,0,0,0,,0,,,,0,7,0,7,2,2,0,0,0,10,6,0,0,0,0,2,0,6,0,0,6,6,10,None,16/02/2022,16/02/2022,22:58:29,Wed Mar 16 2022 22:58:29 GMT+0000 (Greenwich Mean Time),The main experiment item,yes,,0,0,C:\Users\dcgraham\Downloads,0,0,0,Slide2.jpg,no,mono,no,18,no,white,no,no,768,23058,3.6.1,psycho,psycho,ae2204,osweb,1.4.0,1,yes,621,,0,None,space,space,None,,,,None,None,space,,space,,enter,space,3015,41998,10342,365,,,,3017,3015,4741,,13768,,893,43563,2,psycho,809,1440,30,900,30,106,44,1440,1.64747E+12,1024,2,48000,-16,experiment,18844,even,MacIntel,14661,4313,114022,,119,,,119,119,134853,150187,119,137872,149671,119,109,,56674,153202,,3402,70457,4309,3402,150187,New experiment,10,32410,18,yes,1024
infinite,,Target,53,53,1737,1737,black,no,3124,Mozilla,Netscape,"5.0 (Macintosh; Intel Mac OS X 10_15_7) AppleWebKit/537.36 (KHTML, like Gecko) Chrome/98.0.4758.109 Safari/537.36",psycho,psycho,psycho,0,uniform,0,,,1,0,,0,0,0,0,0,0,0,,0,,,,0,7,0,7,3,3,0,0,0,11,6,0,0,0,0,3,0,6,0,0,6,6,11,z,16/02/2022,16/02/2022,22:58:29,Wed Mar 16 2022 22:58:29 GMT+0000 (Greenwich Mean Time),The main experiment item,yes,,0,0,C:\Users\dcgraham\Downloads,0,0,0,Slide5.jpg,no,mono,no,18,no,white,no,no,768,23058,3.6.1,psycho,psycho,ae2204,osweb,1.4.0,1,yes,621,,0,m,space,space,None,,,,None,m,space,,space,,enter,space,598,41998,10342,365,,,,3017,598,4741,,13768,,893,43563,2,psycho,809,1440,30,900,30,106,44,1440,1.64747E+12,1024,2,48000,-16,experiment,18844,even,MacIntel,14661,4313,114022,,119,,,119,119,134853,153719,119,137872,153204,119,109,,56674,154319,,3402,70457,4309,3402,153719,New experiment,10,33008,19,yes,1024
3000,,Stimuli,55,55,1801,1801,black,no,3124,Mozilla,Netscape,"5.0 (Macintosh; Intel Mac OS X 10_15_7) AppleWebKit/537.36 (KHTML, like Gecko) Chrome/98.0.4758.109 Safari/537.36",psycho,psycho,psycho,0,uniform,1,,,1,1,,0,0,0,0,0,0,0,,0,,,,0,7,0,7,4,4,0,0,0,12,6,0,0,0,0,4,0,6,0,0,6,6,12,None,16/02/2022,16/02/2022,22:58:29,Wed Mar 16 2022 22:58:29 GMT+0000 (Greenwich Mean Time),The main experiment item,yes,,0,0,C:\Users\dcgraham\Downloads,0,0,0,Slide7.jpg,no,mono,no,18,no,white,no,no,768,23058,3.6.1,psycho,psycho,ae2204,osweb,1.4.0,1,yes,621,,0,None,space,space,None,,,,None,None,space,,space,,enter,space,3016,41998,10342,365,,,,3017,3016,4741,,13768,,893,43563,2,psycho,809,1440,30,900,30,106,44,1440,1.64747E+12,1024,2,48000,-16,experiment,18844,even,MacIntel,14661,4313,114022,,119,,,119,119,134853,154836,119,137872,154320,119,109,,56674,157852,,3402,70457,4309,3402,154836,New experiment,11,36024,20,yes,1024
infinite,,Target,57,57,1744,1744,black,no,3124,Mozilla,Netscape,"5.0 (Macintosh; Intel Mac OS X 10_15_7) AppleWebKit/537.36 (KHTML, like Gecko) Chrome/98.0.4758.109 Safari/537.36",psycho,psycho,psycho,0,uniform,1,,,1,1,,0,0,0,0,0,0,0,,0,,,,0,7,0,7,5,5,0,0,0,13,6,0,0,0,0,5,0,6,0,0,6,6,13,m,16/02/2022,16/02/2022,22:58:29,Wed Mar 16 2022 22:58:29 GMT+0000 (Greenwich Mean Time),The main experiment item,yes,,0,0,C:\Users\dcgraham\Downloads,0,0,0,Slide11.jpg,no,mono,no,18,no,white,no,no,768,23058,3.6.1,psycho,psycho,ae2204,osweb,1.4.0,1,yes,621,,0,m,space,space,None,,,,None,m,space,,space,,enter,space,605,41998,10342,365,,,,3017,605,4741,,13768,,893,43563,2,psycho,809,1440,30,900,30,106,44,1440,1.64747E+12,1024,2,48000,-16,experiment,18844,even,MacIntel,14661,4313,114022,,119,,,119,119,134853,158370,119,137872,157854,119,109,,56674,158985,,3402,70457,4309,3402,158370,New experiment,12,36629,21,yes,1024
3000,,Stimuli,59,59,1802,1802,black,no,3124,Mozilla,Netscape,"5.0 (Macintosh; Intel Mac OS X 10_15_7) AppleWebKit/537.36 (KHTML, like Gecko) Chrome/98.0.4758.109 Safari/537.36",psycho,psycho,psycho,0,uniform,1,,,1,1,,0,0,0,0,0,0,0,,0,,,,0,7,0,7,6,6,0,0,0,14,6,0,0,0,0,6,0,6,0,0,6,6,14,None,16/02/2022,16/02/2022,22:58:29,Wed Mar 16 2022 22:58:29 GMT+0000 (Greenwich Mean Time),The main experiment item,yes,,0,0,C:\Users\dcgraham\Downloads,0,0,0,Slide8.jpg,no,mono,no,18,no,white,no,no,768,23058,3.6.1,psycho,psycho,ae2204,osweb,1.4.0,1,yes,621,,0,None,space,space,None,,,,None,None,space,,space,,enter,space,3015,41998,10342,365,,,,3017,3015,4741,,13768,,893,43563,2,psycho,809,1440,30,900,30,106,44,1440,1.64747E+12,1024,2,48000,-16,experiment,18844,even,MacIntel,14661,4313,114022,,119,,,119,119,134853,159503,119,137872,158987,119,109,,56674,162518,,3402,70457,4309,3402,159503,New experiment,13,39644,22,yes,1024
3000,,Stimuli,61,61,1855,1855,black,no,3124,Mozilla,Netscape,"5.0 (Macintosh; Intel Mac OS X 10_15_7) AppleWebKit/537.36 (KHTML, like Gecko) Chrome/98.0.4758.109 Safari/537.36",psycho,psycho,psycho,0,uniform,1,,,1,1,,0,0,0,0,0,0,0,,0,,,,0,7,0,7,7,7,0,0,0,15,6,0,0,0,0,7,0,6,0,0,6,6,15,None,16/02/2022,16/02/2022,22:58:29,Wed Mar 16 2022 22:58:29 GMT+0000 (Greenwich Mean Time),The main experiment item,yes,,0,0,C:\Users\dcgraham\Downloads,0,0,0,Slide2.jpg,no,mono,no,18,no,white,no,no,768,23058,3.6.1,psycho,psycho,ae2204,osweb,1.4.0,1,yes,621,,0,None,space,space,None,,,,None,None,space,,space,,enter,space,3015,41998,10342,365,,,,3017,3015,4741,,13768,,893,43563,2,psycho,809,1440,30,900,30,106,44,1440,1.64747E+12,1024,2,48000,-16,experiment,18844,even,MacIntel,14661,4313,114022,,119,,,119,119,134853,163037,119,137872,162520,119,109,,56674,166052,,3402,70457,4309,3402,163037,New experiment,14,42659,23,yes,1024
infinite,,Probe,58,58,1860,1860,black,no,3124,Mozilla,Netscape,"5.0 (Macintosh; Intel Mac OS X 10_15_7) AppleWebKit/537.36 (KHTML, like Gecko) Chrome/98.0.4758.109 Safari/537.36",psycho,psycho,psycho,0,uniform,0,,,1,0,,0,0,0,0,0,0,0,,0,,,,0,7,0,7,8,8,0,0,0,16,6,0,0,0,0,8,0,6,0,0,6,6,16,y;n,16/02/2022,16/02/2022,22:58:29,Wed Mar 16 2022 22:58:29 GMT+0000 (Greenwich Mean Time),The main experiment item,yes,,0,0,C:\Users\dcgraham\Downloads,0,0,0,wandering.jpg,no,mono,no,18,no,white,no,no,768,23058,3.6.1,psycho,psycho,ae2204,osweb,1.4.0,1,yes,621,,0,y,space,space,None,,,,None,y,space,,space,,enter,space,1984,41998,10342,365,,,,3017,1984,4741,,13768,,893,43563,2,psycho,809,1440,30,900,30,106,44,1440,1.64747E+12,1024,2,48000,-16,experiment,18844,even,MacIntel,14661,4313,114022,,119,,,119,119,134853,166569,119,137872,166054,119,109,,56674,168569,,3402,70457,4309,3402,166569,New experiment,14,44643,24,yes,1024
3000,,Stimuli,60,60,1906,1906,black,no,3124,Mozilla,Netscape,"5.0 (Macintosh; Intel Mac OS X 10_15_7) AppleWebKit/537.36 (KHTML, like Gecko) Chrome/98.0.4758.109 Safari/537.36",psycho,psycho,psycho,0,uniform,1,,,1,1,,0,0,0,0,0,0,0,,0,,,,0,7,0,7,9,9,0,0,0,17,6,0,0,0,0,9,0,6,0,0,6,6,17,None,16/02/2022,16/02/2022,22:58:29,Wed Mar 16 2022 22:58:29 GMT+0000 (Greenwich Mean Time),The main experiment item,yes,,0,0,C:\Users\dcgraham\Downloads,0,0,0,Slide13.jpg,no,mono,no,18,no,white,no,no,768,23058,3.6.1,psycho,psycho,ae2204,osweb,1.4.0,1,yes,621,,0,None,space,space,None,,,,None,None,space,,space,,enter,space,3016,41998,10342,365,,,,3017,3016,4741,,13768,,893,43563,2,psycho,809,1440,30,900,30,106,44,1440,1.64747E+12,1024,2,48000,-16,experiment,18844,even,MacIntel,14661,4313,114022,,119,,,119,119,134853,169086,119,137872,168571,119,109,,56674,172103,,3402,70457,4309,3402,169086,New experiment,15,47659,25,yes,1024
infinite,,Target,62,62,1867,1867,black,no,3124,Mozilla,Netscape,"5.0 (Macintosh; Intel Mac OS X 10_15_7) AppleWebKit/537.36 (KHTML, like Gecko) Chrome/98.0.4758.109 Safari/537.36",psycho,psycho,psycho,0,uniform,1,,,1,1,,0,0,0,0,0,0,0,,0,,,,0,7,0,7,10,10,0,0,0,18,6,0,0,0,0,10,0,6,0,0,6,6,18,z,16/02/2022,16/02/2022,22:58:29,Wed Mar 16 2022 22:58:29 GMT+0000 (Greenwich Mean Time),The main experiment item,yes,,0,0,C:\Users\dcgraham\Downloads,0,0,0,Slide16.jpg,no,mono,no,18,no,white,no,no,768,23058,3.6.1,psycho,psycho,ae2204,osweb,1.4.0,1,yes,621,,0,z,space,space,None,,,,None,z,space,,space,,enter,space,890,41998,10342,365,,,,3017,890,4741,,13768,,893,43563,2,psycho,809,1440,30,900,30,106,44,1440,1.64747E+12,1024,2,48000,-16,experiment,18844,even,MacIntel,14661,4313,114022,,119,,,119,119,134853,172618,119,137872,172105,119,109,,56674,173519,,3402,70457,4309,3402,172618,New experiment,16,48549,26,yes,1024
3000,,Stimuli,63,63,1910,1910,black,no,3124,Mozilla,Netscape,"5.0 (Macintosh; Intel Mac OS X 10_15_7) AppleWebKit/537.36 (KHTML, like Gecko) Chrome/98.0.4758.109 Safari/537.36",psycho,psycho,psycho,0,uniform,1,,,1,1,,0,0,0,0,0,0,0,,0,,,,0,7,0,7,11,11,0,0,0,19,6,0,0,0,0,11,0,6,0,0,6,6,19,None,16/02/2022,16/02/2022,22:58:29,Wed Mar 16 2022 22:58:29 GMT+0000 (Greenwich Mean Time),The main experiment item,yes,,0,0,C:\Users\dcgraham\Downloads,0,0,0,Slide2.jpg,no,mono,no,18,no,white,no,no,768,23058,3.6.1,psycho,psycho,ae2204,osweb,1.4.0,1,yes,621,,0,None,space,space,None,,,,None,None,space,,space,,enter,space,3015,41998,10342,365,,,,3017,3015,4741,,13768,,893,43563,2,psycho,809,1440,30,900,30,106,44,1440,1.64747E+12,1024,2,48000,-16,experiment,18844,even,MacIntel,14661,4313,114022,,119,,,119,119,134853,174036,119,137872,173521,119,109,,56674,177052,,3402,70457,4309,3402,174036,New experiment,17,51564,27,yes,1024
3000,,Stimuli,64,64,1949,1949,black,no,3124,Mozilla,Netscape,"5.0 (Macintosh; Intel Mac OS X 10_15_7) AppleWebKit/537.36 (KHTML, like Gecko) Chrome/98.0.4758.109 Safari/537.36",psycho,psycho,psycho,0,uniform,1,,,1,1,,0,0,0,0,0,0,0,,0,,,,0,7,0,7,12,12,0,0,0,20,6,0,0,0,0,12,0,6,0,0,6,6,20,None,16/02/2022,16/02/2022,22:58:29,Wed Mar 16 2022 22:58:29 GMT+0000 (Greenwich Mean Time),The main experiment item,yes,,0,0,C:\Users\dcgraham\Downloads,0,0,0,Slide14.jpg,no,mono,no,18,no,white,no,no,768,23058,3.6.1,psycho,psycho,ae2204,osweb,1.4.0,1,yes,621,,0,None,space,space,None,,,,None,None,space,,space,,enter,space,3015,41998,10342,365,,,,3017,3015,4741,,13768,,893,43563,2,psycho,809,1440,30,900,30,106,44,1440,1.64747E+12,1024,2,48000,-16,experiment,18844,even,MacIntel,14661,4313,114022,,119,,,119,119,134853,177569,119,137872,177054,119,109,,56674,180585,,3402,70457,4309,3402,177569,New experiment,18,54579,28,yes,1024
3000,,Stimuli,66,66,1986,1986,black,no,3124,Mozilla,Netscape,"5.0 (Macintosh; Intel Mac OS X 10_15_7) AppleWebKit/537.36 (KHTML, like Gecko) Chrome/98.0.4758.109 Safari/537.36",psycho,psycho,psycho,0,uniform,1,,,1,1,,0,0,0,0,0,0,0,,0,,,,0,7,0,7,13,13,0,0,0,21,6,0,0,0,0,13,0,6,0,0,6,6,21,None,16/02/2022,16/02/2022,22:58:29,Wed Mar 16 2022 22:58:29 GMT+0000 (Greenwich Mean Time),The main experiment item,yes,,0,0,C:\Users\dcgraham\Downloads,0,0,0,Slide13.jpg,no,mono,no,18,no,white,no,no,768,23058,3.6.1,psycho,psycho,ae2204,osweb,1.4.0,1,yes,621,,0,None,space,space,None,,,,None,None,space,,space,,enter,space,3016,41998,10342,365,,,,3017,3016,4741,,13768,,893,43563,2,psycho,809,1440,30,900,30,106,44,1440,1.64747E+12,1024,2,48000,-16,experiment,18844,even,MacIntel,14661,4313,114022,,119,,,119,119,134853,181102,119,137872,180587,119,109,,56674,184118,,3402,70457,4309,3402,181102,New experiment,19,57595,29,yes,1024
3000,,Stimuli,63,63,1943,1943,black,no,3124,Mozilla,Netscape,"5.0 (Macintosh; Intel Mac OS X 10_15_7) AppleWebKit/537.36 (KHTML, like Gecko) Chrome/98.0.4758.109 Safari/537.36",psycho,psycho,psycho,0,uniform,0,,,1,0,,0,0,0,0,0,0,0,,0,,,,0,7,0,7,14,14,0,0,0,22,6,0,0,0,0,14,0,6,0,0,6,6,22,None,16/02/2022,16/02/2022,22:58:29,Wed Mar 16 2022 22:58:29 GMT+0000 (Greenwich Mean Time),The main experiment item,yes,,0,0,C:\Users\dcgraham\Downloads,0,0,0,Slide3.jpg,no,mono,no,18,no,white,no,no,768,23058,3.6.1,psycho,psycho,ae2204,osweb,1.4.0,1,yes,621,,0,m,space,space,None,,,,None,m,space,,space,,enter,space,698,41998,10342,365,,,,3017,698,4741,,13768,,893,43563,2,psycho,809,1440,30,900,30,106,44,1440,1.64747E+12,1024,2,48000,-16,experiment,18844,even,MacIntel,14661,4313,114022,,119,,,119,119,134853,184636,119,137872,184120,119,109,,56674,185335,,3402,70457,4309,3402,184636,New experiment,19,58293,30,yes,1024
infinite,,Target,61,61,1918,1918,black,no,3124,Mozilla,Netscape,"5.0 (Macintosh; Intel Mac OS X 10_15_7) AppleWebKit/537.36 (KHTML, like Gecko) Chrome/98.0.4758.109 Safari/537.36",psycho,psycho,psycho,0,uniform,0,,,1,0,,0,0,0,0,0,0,0,,0,,,,0,7,0,7,15,15,0,0,0,23,6,0,0,0,0,15,0,6,0,0,6,6,23,z,16/02/2022,16/02/2022,22:58:29,Wed Mar 16 2022 22:58:29 GMT+0000 (Greenwich Mean Time),The main experiment item,yes,,0,0,C:\Users\dcgraham\Downloads,0,0,0,Slide11.jpg,no,mono,no,18,no,white,no,no,768,23058,3.6.1,psycho,psycho,ae2204,osweb,1.4.0,1,yes,621,,0,m,space,space,None,,,,None,m,space,,space,,enter,space,1150,41998,10342,365,,,,3017,1150,4741,,13768,,893,43563,2,psycho,809,1440,30,900,30,106,44,1440,1.64747E+12,1024,2,48000,-16,experiment,18844,even,MacIntel,14661,4313,114022,,119,,,119,119,134853,185852,119,137872,185337,119,109,,56674,187019,,3402,70457,4309,3402,185852,New experiment,19,59443,31,yes,1024
3000,,Stimuli,63,63,1952,1952,black,no,3124,Mozilla,Netscape,"5.0 (Macintosh; Intel Mac OS X 10_15_7) AppleWebKit/537.36 (KHTML, like Gecko) Chrome/98.0.4758.109 Safari/537.36",psycho,psycho,psycho,0,uniform,1,,,1,1,,0,0,0,0,0,0,0,,0,,,,0,7,0,7,16,16,0,0,0,24,6,0,0,0,0,16,0,6,0,0,6,6,24,None,16/02/2022,16/02/2022,22:58:29,Wed Mar 16 2022 22:58:29 GMT+0000 (Greenwich Mean Time),The main experiment item,yes,,0,0,C:\Users\dcgraham\Downloads,0,0,0,Slide1.jpg,no,mono,no,18,no,white,no,no,768,23058,3.6.1,psycho,psycho,ae2204,osweb,1.4.0,1,yes,621,,0,None,space,space,None,,,,None,None,space,,space,,enter,space,3017,41998,10342,365,,,,3017,3017,4741,,13768,,893,43563,2,psycho,809,1440,30,900,30,106,44,1440,1.64747E+12,1024,2,48000,-16,experiment,18844,even,MacIntel,14661,4313,114022,,119,,,119,119,134853,187535,119,137872,187023,119,109,,56674,190552,,3402,70457,4309,3402,187535,New experiment,20,62460,32,yes,1024
infinite,,Target,64,64,1911,1911,black,no,3124,Mozilla,Netscape,"5.0 (Macintosh; Intel Mac OS X 10_15_7) AppleWebKit/537.36 (KHTML, like Gecko) Chrome/98.0.4758.109 Safari/537.36",psycho,psycho,psycho,0,uniform,1,,,1,1,,0,0,0,0,0,0,0,,0,,,,0,7,0,7,17,17,0,0,0,25,6,0,0,0,0,17,0,6,0,0,6,6,25,m,16/02/2022,16/02/2022,22:58:29,Wed Mar 16 2022 22:58:29 GMT+0000 (Greenwich Mean Time),The main experiment item,yes,,0,0,C:\Users\dcgraham\Downloads,0,0,0,Slide17.jpg,no,mono,no,18,no,white,no,no,768,23058,3.6.1,psycho,psycho,ae2204,osweb,1.4.0,1,yes,621,,0,m,space,space,None,,,,None,m,space,,space,,enter,space,619,41998,10342,365,,,,3017,619,4741,,13768,,893,43563,2,psycho,809,1440,30,900,30,106,44,1440,1.64747E+12,1024,2,48000,-16,experiment,18844,even,MacIntel,14661,4313,114022,,119,,,119,119,134853,191068,119,137872,190554,119,109,,56674,191701,,3402,70457,4309,3402,191068,New experiment,21,63079,33,yes,1024
3000,,Stimuli,65,65,1944,1944,black,no,3124,Mozilla,Netscape,"5.0 (Macintosh; Intel Mac OS X 10_15_7) AppleWebKit/537.36 (KHTML, like Gecko) Chrome/98.0.4758.109 Safari/537.36",psycho,psycho,psycho,0,uniform,1,,,1,1,,0,0,0,0,0,0,0,,0,,,,0,7,0,7,18,18,0,0,0,26,6,0,0,0,0,18,0,6,0,0,6,6,26,None,16/02/2022,16/02/2022,22:58:29,Wed Mar 16 2022 22:58:29 GMT+0000 (Greenwich Mean Time),The main experiment item,yes,,0,0,C:\Users\dcgraham\Downloads,0,0,0,Slide13.jpg,no,mono,no,18,no,white,no,no,768,23058,3.6.1,psycho,psycho,ae2204,osweb,1.4.0,1,yes,621,,0,None,space,space,None,,,,None,None,space,,space,,enter,space,3017,41998,10342,365,,,,3017,3017,4741,,13768,,893,43563,2,psycho,809,1440,30,900,30,106,44,1440,1.64747E+12,1024,2,48000,-16,experiment,18844,even,MacIntel,14661,4313,114022,,119,,,119,119,134853,192218,119,137872,191703,119,109,,56674,195235,,3402,70457,4309,3402,192218,New experiment,22,66096,34,yes,1024
infinite,,Target,66,66,1907,1907,black,no,3124,Mozilla,Netscape,"5.0 (Macintosh; Intel Mac OS X 10_15_7) AppleWebKit/537.36 (KHTML, like Gecko) Chrome/98.0.4758.109 Safari/537.36",psycho,psycho,psycho,0,uniform,1,,,1,1,,0,0,0,0,0,0,0,,0,,,,0,7,0,7,19,19,0,0,0,27,6,0,0,0,0,19,0,6,0,0,6,6,27,m,16/02/2022,16/02/2022,22:58:29,Wed Mar 16 2022 22:58:29 GMT+0000 (Greenwich Mean Time),The main experiment item,yes,,0,0,C:\Users\dcgraham\Downloads,0,0,0,Slide15.jpg,no,mono,no,18,no,white,no,no,768,23058,3.6.1,psycho,psycho,ae2204,osweb,1.4.0,1,yes,621,,0,m,space,space,None,,,,None,m,space,,space,,enter,space,642,41998,10342,365,,,,3017,642,4741,,13768,,893,43563,2,psycho,809,1440,30,900,30,106,44,1440,1.64747E+12,1024,2,48000,-16,experiment,18844,even,MacIntel,14661,4313,114022,,119,,,119,119,134853,195751,119,137872,195237,119,109,,56674,196401,,3402,70457,4309,3402,195751,New experiment,23,66738,35,yes,1024
3000,,Stimuli,67,67,1938,1938,black,no,3124,Mozilla,Netscape,"5.0 (Macintosh; Intel Mac OS X 10_15_7) AppleWebKit/537.36 (KHTML, like Gecko) Chrome/98.0.4758.109 Safari/537.36",psycho,psycho,psycho,0,uniform,1,,,1,1,,0,0,0,0,0,0,0,,0,,,,0,7,0,7,20,20,0,0,0,28,6,0,0,0,0,20,0,6,0,0,6,6,28,None,16/02/2022,16/02/2022,22:58:29,Wed Mar 16 2022 22:58:29 GMT+0000 (Greenwich Mean Time),The main experiment item,yes,,0,0,C:\Users\dcgraham\Downloads,0,0,0,Slide2.jpg,no,mono,no,18,no,white,no,no,768,23058,3.6.1,psycho,psycho,ae2204,osweb,1.4.0,1,yes,621,,0,None,space,space,None,,,,None,None,space,,space,,enter,space,3016,41998,10342,365,,,,3017,3016,4741,,13768,,893,43563,2,psycho,809,1440,30,900,30,106,44,1440,1.64747E+12,1024,2,48000,-16,experiment,18844,even,MacIntel,14661,4313,114022,,119,,,119,119,134853,196918,119,137872,196403,119,109,,56674,199934,,3402,70457,4309,3402,196918,New experiment,24,69754,36,yes,1024
3000,,Stimuli,68,68,1967,1967,black,no,3124,Mozilla,Netscape,"5.0 (Macintosh; Intel Mac OS X 10_15_7) AppleWebKit/537.36 (KHTML, like Gecko) Chrome/98.0.4758.109 Safari/537.36",psycho,psycho,psycho,0,uniform,1,,,1,1,,0,0,0,0,0,0,0,,0,,,,0,7,0,7,21,21,0,0,0,29,6,0,0,0,0,21,0,6,0,0,6,6,29,None,16/02/2022,16/02/2022,22:58:29,Wed Mar 16 2022 22:58:29 GMT+0000 (Greenwich Mean Time),The main experiment item,yes,,0,0,C:\Users\dcgraham\Downloads,0,0,0,Slide1.jpg,no,mono,no,18,no,white,no,no,768,23058,3.6.1,psycho,psycho,ae2204,osweb,1.4.0,1,yes,621,,0,None,space,space,None,,,,None,None,space,,space,,enter,space,3014,41998,10342,365,,,,3017,3014,4741,,13768,,893,43563,2,psycho,809,1440,30,900,30,106,44,1440,1.64747E+12,1024,2,48000,-16,experiment,18844,even,MacIntel,14661,4313,114022,,119,,,119,119,134853,200452,119,137872,199936,119,109,,56674,203467,,3402,70457,4309,3402,200452,New experiment,25,72768,37,yes,1024
3000,,Stimuli,68,68,1994,1994,black,no,3124,Mozilla,Netscape,"5.0 (Macintosh; Intel Mac OS X 10_15_7) AppleWebKit/537.36 (KHTML, like Gecko) Chrome/98.0.4758.109 Safari/537.36",psycho,psycho,psycho,0,uniform,1,,,1,1,,0,0,0,0,0,0,0,,0,,,,0,7,0,7,22,22,0,0,0,30,6,0,0,0,0,22,0,6,0,0,6,6,30,None,16/02/2022,16/02/2022,22:58:29,Wed Mar 16 2022 22:58:29 GMT+0000 (Greenwich Mean Time),The main experiment item,yes,,0,0,C:\Users\dcgraham\Downloads,0,0,0,Slide8.jpg,no,mono,no,18,no,white,no,no,768,23058,3.6.1,psycho,psycho,ae2204,osweb,1.4.0,1,yes,621,,0,None,space,space,None,,,,None,None,space,,space,,enter,space,3016,41998,10342,365,,,,3017,3016,4741,,13768,,893,43563,2,psycho,809,1440,30,900,30,106,44,1440,1.64747E+12,1024,2,48000,-16,experiment,18844,even,MacIntel,14661,4313,114022,,119,,,119,119,134853,203984,119,137872,203469,119,109,,56674,207001,,3402,70457,4309,3402,203984,New experiment,26,75784,38,yes,1024
infinite,,Target,69,69,1958,1958,black,no,3124,Mozilla,Netscape,"5.0 (Macintosh; Intel Mac OS X 10_15_7) AppleWebKit/537.36 (KHTML, like Gecko) Chrome/98.0.4758.109 Safari/537.36",psycho,psycho,psycho,0,uniform,1,,,1,1,,0,0,0,0,0,0,0,,0,,,,0,7,0,7,23,23,0,0,0,31,6,0,0,0,0,23,0,6,0,0,6,6,31,m,16/02/2022,16/02/2022,22:58:29,Wed Mar 16 2022 22:58:29 GMT+0000 (Greenwich Mean Time),The main experiment item,yes,,0,0,C:\Users\dcgraham\Downloads,0,0,0,Slide10.jpg,no,mono,no,18,no,white,no,no,768,23058,3.6.1,psycho,psycho,ae2204,osweb,1.4.0,1,yes,621,,0,m,space,space,None,,,,None,m,space,,space,,enter,space,586,41998,10342,365,,,,3017,586,4741,,13768,,893,43563,2,psycho,809,1440,30,900,30,106,44,1440,1.64747E+12,1024,2,48000,-16,experiment,18844,even,MacIntel,14661,4313,114022,,119,,,119,119,134853,207518,119,137872,207003,119,109,,56674,208117,,3402,70457,4309,3402,207518,New experiment,27,76370,39,yes,1024
3000,,Stimuli,70,70,1985,1985,black,no,3124,Mozilla,Netscape,"5.0 (Macintosh; Intel Mac OS X 10_15_7) AppleWebKit/537.36 (KHTML, like Gecko) Chrome/98.0.4758.109 Safari/537.36",psycho,psycho,psycho,0,uniform,1,,,1,1,,0,0,0,0,0,0,0,,0,,,,0,7,0,7,24,24,0,0,0,32,6,0,0,0,0,24,0,6,0,0,6,6,32,None,16/02/2022,16/02/2022,22:58:29,Wed Mar 16 2022 22:58:29 GMT+0000 (Greenwich Mean Time),The main experiment item,yes,,0,0,C:\Users\dcgraham\Downloads,0,0,0,Slide7.jpg,no,mono,no,18,no,white,no,no,768,23058,3.6.1,psycho,psycho,ae2204,osweb,1.4.0,1,yes,621,,0,None,space,space,None,,,,None,None,space,,space,,enter,space,3017,41998,10342,365,,,,3017,3017,4741,,13768,,893,43563,2,psycho,809,1440,30,900,30,106,44,1440,1.64747E+12,1024,2,48000,-16,experiment,18844,even,MacIntel,14661,4313,114022,,119,,,119,119,134853,208634,119,137872,208119,119,109,,56674,211651,,3402,70457,4309,3402,208634,New experiment,28,79387,40,yes,1024
infinite,,Target,71,71,1956,1956,black,no,3124,Mozilla,Netscape,"5.0 (Macintosh; Intel Mac OS X 10_15_7) AppleWebKit/537.36 (KHTML, like Gecko) Chrome/98.0.4758.109 Safari/537.36",psycho,psycho,psycho,0,uniform,1,,,1,1,,0,0,0,0,0,0,0,,0,,,,0,7,0,7,25,25,0,0,0,33,6,0,0,0,0,25,0,6,0,0,6,6,33,z,16/02/2022,16/02/2022,22:58:29,Wed Mar 16 2022 22:58:29 GMT+0000 (Greenwich Mean Time),The main experiment item,yes,,0,0,C:\Users\dcgraham\Downloads,0,0,0,Slide12.jpg,no,mono,no,18,no,white,no,no,768,23058,3.6.1,psycho,psycho,ae2204,osweb,1.4.0,1,yes,621,,0,z,space,space,None,,,,None,z,space,,space,,enter,space,796,41998,10342,365,,,,3017,796,4741,,13768,,893,43563,2,psycho,809,1440,30,900,30,106,44,1440,1.64747E+12,1024,2,48000,-16,experiment,18844,even,MacIntel,14661,4313,114022,,119,,,119,119,134853,212167,119,137872,211653,119,109,,56674,212967,,3402,70457,4309,3402,212167,New experiment,29,80183,41,yes,1024
infinite,,Probe,69,69,1959,1959,black,no,3124,Mozilla,Netscape,"5.0 (Macintosh; Intel Mac OS X 10_15_7) AppleWebKit/537.36 (KHTML, like Gecko) Chrome/98.0.4758.109 Safari/537.36",psycho,psycho,psycho,0,uniform,0,,,1,0,,0,0,0,0,0,0,0,,0,,,,0,7,0,7,26,26,0,0,0,34,6,0,0,0,0,26,0,6,0,0,6,6,34,y;n,16/02/2022,16/02/2022,22:58:29,Wed Mar 16 2022 22:58:29 GMT+0000 (Greenwich Mean Time),The main experiment item,yes,,0,0,C:\Users\dcgraham\Downloads,0,0,0,wandering.jpg,no,mono,no,18,no,white,no,no,768,23058,3.6.1,psycho,psycho,ae2204,osweb,1.4.0,1,yes,621,,0,y,space,space,None,,,,None,y,space,,space,,enter,space,2104,41998,10342,365,,,,3017,2104,4741,,13768,,893,43563,2,psycho,809,1440,30,900,30,106,44,1440,1.64747E+12,1024,2,48000,-16,experiment,18844,even,MacIntel,14661,4313,114022,,119,,,119,119,134853,213484,119,137872,212969,119,109,,56674,215601,,3402,70457,4309,3402,213484,New experiment,29,82287,42,yes,1024
3000,,Stimuli,70,70,1984,1984,black,no,3124,Mozilla,Netscape,"5.0 (Macintosh; Intel Mac OS X 10_15_7) AppleWebKit/537.36 (KHTML, like Gecko) Chrome/98.0.4758.109 Safari/537.36",psycho,psycho,psycho,0,uniform,1,,,1,1,,0,0,0,0,0,0,0,,0,,,,0,7,0,7,27,27,0,0,0,35,6,0,0,0,0,27,0,6,0,0,6,6,35,None,16/02/2022,16/02/2022,22:58:29,Wed Mar 16 2022 22:58:29 GMT+0000 (Greenwich Mean Time),The main experiment item,yes,,0,0,C:\Users\dcgraham\Downloads,0,0,0,Slide13.jpg,no,mono,no,18,no,white,no,no,768,23058,3.6.1,psycho,psycho,ae2204,osweb,1.4.0,1,yes,621,,0,None,space,space,None,,,,None,None,space,,space,,enter,space,3016,41998,10342,365,,,,3017,3016,4741,,13768,,893,43563,2,psycho,809,1440,30,900,30,106,44,1440,1.64747E+12,1024,2,48000,-16,experiment,18844,even,MacIntel,14661,4313,114022,,119,,,119,119,134853,216118,119,137872,215602,119,109,,56674,219134,,3402,70457,4309,3402,216118,New experiment,30,85303,43,yes,1024
3000,,Stimuli,70,70,2007,2007,black,no,3124,Mozilla,Netscape,"5.0 (Macintosh; Intel Mac OS X 10_15_7) AppleWebKit/537.36 (KHTML, like Gecko) Chrome/98.0.4758.109 Safari/537.36",psycho,psycho,psycho,0,uniform,1,,,1,1,,0,0,0,0,0,0,0,,0,,,,0,7,0,7,28,28,0,0,0,36,6,0,0,0,0,28,0,6,0,0,6,6,36,None,16/02/2022,16/02/2022,22:58:29,Wed Mar 16 2022 22:58:29 GMT+0000 (Greenwich Mean Time),The main experiment item,yes,,0,0,C:\Users\dcgraham\Downloads,0,0,0,Slide14.jpg,no,mono,no,18,no,white,no,no,768,23058,3.6.1,psycho,psycho,ae2204,osweb,1.4.0,1,yes,621,,0,None,space,space,None,,,,None,None,space,,space,,enter,space,3015,41998,10342,365,,,,3017,3015,4741,,13768,,893,43563,2,psycho,809,1440,30,900,30,106,44,1440,1.64747E+12,1024,2,48000,-16,experiment,18844,even,MacIntel,14661,4313,114022,,119,,,119,119,134853,219651,119,137872,219136,119,109,,56674,222666,,3402,70457,4309,3402,219651,New experiment,31,88318,44,yes,1024
infinite,,Target,71,71,1977,1977,black,no,3124,Mozilla,Netscape,"5.0 (Macintosh; Intel Mac OS X 10_15_7) AppleWebKit/537.36 (KHTML, like Gecko) Chrome/98.0.4758.109 Safari/537.36",psycho,psycho,psycho,0,uniform,1,,,1,1,,0,0,0,0,0,0,0,,0,,,,0,7,0,7,29,29,0,0,0,37,6,0,0,0,0,29,0,6,0,0,6,6,37,z,16/02/2022,16/02/2022,22:58:29,Wed Mar 16 2022 22:58:29 GMT+0000 (Greenwich Mean Time),The main experiment item,yes,,0,0,C:\Users\dcgraham\Downloads,0,0,0,Slide16.jpg,no,mono,no,18,no,white,no,no,768,23058,3.6.1,psycho,psycho,ae2204,osweb,1.4.0,1,yes,621,,0,z,space,space,None,,,,None,z,space,,space,,enter,space,628,41998,10342,365,,,,3017,628,4741,,13768,,893,43563,2,psycho,809,1440,30,900,30,106,44,1440,1.64747E+12,1024,2,48000,-16,experiment,18844,even,MacIntel,14661,4313,114022,,119,,,119,119,134853,223184,119,137872,222669,119,109,,56674,223817,,3402,70457,4309,3402,223184,New experiment,32,88946,45,yes,1024
infinite,,Target,72,72,1952,1952,black,no,3124,Mozilla,Netscape,"5.0 (Macintosh; Intel Mac OS X 10_15_7) AppleWebKit/537.36 (KHTML, like Gecko) Chrome/98.0.4758.109 Safari/537.36",psycho,psycho,psycho,0,uniform,1,,,1,1,,0,0,0,0,0,0,0,,0,,,,0,7,0,7,30,30,0,0,0,38,6,0,0,0,0,30,0,6,0,0,6,6,38,z,16/02/2022,16/02/2022,22:58:29,Wed Mar 16 2022 22:58:29 GMT+0000 (Greenwich Mean Time),The main experiment item,yes,,0,0,C:\Users\dcgraham\Downloads,0,0,0,Slide18.jpg,no,mono,no,18,no,white,no,no,768,23058,3.6.1,psycho,psycho,ae2204,osweb,1.4.0,1,yes,621,,0,z,space,space,None,,,,None,z,space,,space,,enter,space,826,41998,10342,365,,,,3017,826,4741,,13768,,893,43563,2,psycho,809,1440,30,900,30,106,44,1440,1.64747E+12,1024,2,48000,-16,experiment,18844,even,MacIntel,14661,4313,114022,,119,,,119,119,134853,224334,119,137872,223818,119,109,,56674,225167,,3402,70457,4309,3402,224334,New experiment,33,89772,46,yes,1024
3000,,Stimuli,72,72,1974,1974,black,no,3124,Mozilla,Netscape,"5.0 (Macintosh; Intel Mac OS X 10_15_7) AppleWebKit/537.36 (KHTML, like Gecko) Chrome/98.0.4758.109 Safari/537.36",psycho,psycho,psycho,0,uniform,1,,,1,1,,0,0,0,0,0,0,0,,0,,,,0,7,0,7,31,31,0,0,0,39,6,0,0,0,0,31,0,6,0,0,6,6,39,None,16/02/2022,16/02/2022,22:58:29,Wed Mar 16 2022 22:58:29 GMT+0000 (Greenwich Mean Time),The main experiment item,yes,,0,0,C:\Users\dcgraham\Downloads,0,0,0,Slide1.jpg,no,mono,no,18,no,white,no,no,768,23058,3.6.1,psycho,psycho,ae2204,osweb,1.4.0,1,yes,621,,0,None,space,space,None,,,,None,None,space,,space,,enter,space,3016,41998,10342,365,,,,3017,3016,4741,,13768,,893,43563,2,psycho,809,1440,30,900,30,106,44,1440,1.64747E+12,1024,2,48000,-16,experiment,18844,even,MacIntel,14661,4313,114022,,119,,,119,119,134853,225684,119,137872,225169,119,109,,56674,228700,,3402,70457,4309,3402,225684,New experiment,34,92788,47,yes,1024
3000,,Stimuli,73,73,1996,1996,black,no,3124,Mozilla,Netscape,"5.0 (Macintosh; Intel Mac OS X 10_15_7) AppleWebKit/537.36 (KHTML, like Gecko) Chrome/98.0.4758.109 Safari/537.36",psycho,psycho,psycho,0,uniform,1,,,1,1,,0,0,0,0,0,0,0,,0,,,,0,7,0,7,32,32,0,0,0,40,6,0,0,0,0,32,0,6,0,0,6,6,40,None,16/02/2022,16/02/2022,22:58:29,Wed Mar 16 2022 22:58:29 GMT+0000 (Greenwich Mean Time),The main experiment item,yes,,0,0,C:\Users\dcgraham\Downloads,0,0,0,Slide2.jpg,no,mono,no,18,no,white,no,no,768,23058,3.6.1,psycho,psycho,ae2204,osweb,1.4.0,1,yes,621,,0,None,space,space,None,,,,None,None,space,,space,,enter,space,3016,41998,10342,365,,,,3017,3016,4741,,13768,,893,43563,2,psycho,809,1440,30,900,30,106,44,1440,1.64747E+12,1024,2,48000,-16,experiment,18844,even,MacIntel,14661,4313,114022,,119,,,119,119,134853,229217,119,137872,228702,119,109,,56674,232233,,3402,70457,4309,3402,229217,New experiment,35,95804,48,yes,1024
infinite,,Target,73,73,1972,1972,black,no,3124,Mozilla,Netscape,"5.0 (Macintosh; Intel Mac OS X 10_15_7) AppleWebKit/537.36 (KHTML, like Gecko) Chrome/98.0.4758.109 Safari/537.36",psycho,psycho,psycho,0,uniform,1,,,1,1,,0,0,0,0,0,0,0,,0,,,,0,7,0,7,33,33,0,0,0,41,6,0,0,0,0,33,0,6,0,0,6,6,41,m,16/02/2022,16/02/2022,22:58:29,Wed Mar 16 2022 22:58:29 GMT+0000 (Greenwich Mean Time),The main experiment item,yes,,0,0,C:\Users\dcgraham\Downloads,0,0,0,Slide10.jpg,no,mono,no,18,no,white,no,no,768,23058,3.6.1,psycho,psycho,ae2204,osweb,1.4.0,1,yes,621,,0,m,space,space,None,,,,None,m,space,,space,,enter,space,830,41998,10342,365,,,,3017,830,4741,,13768,,893,43563,2,psycho,809,1440,30,900,30,106,44,1440,1.64747E+12,1024,2,48000,-16,experiment,18844,even,MacIntel,14661,4313,114022,,119,,,119,119,134853,232750,119,137872,232234,119,109,,56674,233582,,3402,70457,4309,3402,232750,New experiment,36,96634,49,yes,1024
3000,,Stimuli,74,74,1993,1993,black,no,3124,Mozilla,Netscape,"5.0 (Macintosh; Intel Mac OS X 10_15_7) AppleWebKit/537.36 (KHTML, like Gecko) Chrome/98.0.4758.109 Safari/537.36",psycho,psycho,psycho,0,uniform,1,,,1,1,,0,0,0,0,0,0,0,,0,,,,0,7,0,7,34,34,0,0,0,42,6,0,0,0,0,34,0,6,0,0,6,6,42,None,16/02/2022,16/02/2022,22:58:29,Wed Mar 16 2022 22:58:29 GMT+0000 (Greenwich Mean Time),The main experiment item,yes,,0,0,C:\Users\dcgraham\Downloads,0,0,0,Slide14.jpg,no,mono,no,18,no,white,no,no,768,23058,3.6.1,psycho,psycho,ae2204,osweb,1.4.0,1,yes,621,,0,None,space,space,None,,,,None,None,space,,space,,enter,space,3016,41998,10342,365,,,,3017,3016,4741,,13768,,893,43563,2,psycho,809,1440,30,900,30,106,44,1440,1.64747E+12,1024,2,48000,-16,experiment,18844,even,MacIntel,14661,4313,114022,,119,,,119,119,134853,234100,119,137872,233588,119,109,,56674,237116,,3402,70457,4309,3402,234100,New experiment,37,99650,50,yes,1024
infinite,,Target,75,75,1968,1968,black,no,3124,Mozilla,Netscape,"5.0 (Macintosh; Intel Mac OS X 10_15_7) AppleWebKit/537.36 (KHTML, like Gecko) Chrome/98.0.4758.109 Safari/537.36",psycho,psycho,psycho,0,uniform,1,,,1,1,,0,0,0,0,0,0,0,,0,,,,0,7,0,7,35,35,0,0,0,43,6,0,0,0,0,35,0,6,0,0,6,6,43,z,16/02/2022,16/02/2022,22:58:29,Wed Mar 16 2022 22:58:29 GMT+0000 (Greenwich Mean Time),The main experiment item,yes,,0,0,C:\Users\dcgraham\Downloads,0,0,0,Slide9.jpg,no,mono,no,18,no,white,no,no,768,23058,3.6.1,psycho,psycho,ae2204,osweb,1.4.0,1,yes,621,,0,z,space,space,None,,,,None,z,space,,space,,enter,space,701,41998,10342,365,,,,3017,701,4741,,13768,,893,43563,2,psycho,809,1440,30,900,30,106,44,1440,1.64747E+12,1024,2,48000,-16,experiment,18844,even,MacIntel,14661,4313,114022,,119,,,119,119,134853,237633,119,137872,237119,119,109,,56674,238350,,3402,70457,4309,3402,237633,New experiment,38,100351,51,yes,1024
3000,,Stimuli,75,75,1988,1988,black,no,3124,Mozilla,Netscape,"5.0 (Macintosh; Intel Mac OS X 10_15_7) AppleWebKit/537.36 (KHTML, like Gecko) Chrome/98.0.4758.109 Safari/537.36",psycho,psycho,psycho,0,uniform,1,,,1,1,,0,0,0,0,0,0,0,,0,,,,0,7,0,7,36,36,0,0,0,44,6,0,0,0,0,36,0,6,0,0,6,6,44,None,16/02/2022,16/02/2022,22:58:29,Wed Mar 16 2022 22:58:29 GMT+0000 (Greenwich Mean Time),The main experiment item,yes,,0,0,C:\Users\dcgraham\Downloads,0,0,0,Slide13.jpg,no,mono,no,18,no,white,no,no,768,23058,3.6.1,psycho,psycho,ae2204,osweb,1.4.0,1,yes,621,,0,None,space,space,None,,,,None,None,space,,space,,enter,space,3017,41998,10342,365,,,,3017,3017,4741,,13768,,893,43563,2,psycho,809,1440,30,900,30,106,44,1440,1.64747E+12,1024,2,48000,-16,experiment,18844,even,MacIntel,14661,4313,114022,,119,,,119,119,134853,238866,119,137872,238352,119,109,,56674,241883,,3402,70457,4309,3402,238866,New experiment,39,103368,52,yes,1024
3000,,Stimuli,75,75,2007,2007,black,no,3124,Mozilla,Netscape,"5.0 (Macintosh; Intel Mac OS X 10_15_7) AppleWebKit/537.36 (KHTML, like Gecko) Chrome/98.0.4758.109 Safari/537.36",psycho,psycho,psycho,0,uniform,1,,,1,1,,0,0,0,0,0,0,0,,0,,,,0,7,0,7,37,37,0,0,0,45,6,0,0,0,0,37,0,6,0,0,6,6,45,None,16/02/2022,16/02/2022,22:58:29,Wed Mar 16 2022 22:58:29 GMT+0000 (Greenwich Mean Time),The main experiment item,yes,,0,0,C:\Users\dcgraham\Downloads,0,0,0,Slide7.jpg,no,mono,no,18,no,white,no,no,768,23058,3.6.1,psycho,psycho,ae2204,osweb,1.4.0,1,yes,621,,0,None,space,space,None,,,,None,None,space,,space,,enter,space,3016,41998,10342,365,,,,3017,3016,4741,,13768,,893,43563,2,psycho,809,1440,30,900,30,106,44,1440,1.64747E+12,1024,2,48000,-16,experiment,18844,even,MacIntel,14661,4313,114022,,119,,,119,119,134853,242399,119,137872,241884,119,109,,56674,245415,,3402,70457,4309,3402,242399,New experiment,40,106384,53,yes,1024
infinite,,Target,76,76,1981,1981,black,no,3124,Mozilla,Netscape,"5.0 (Macintosh; Intel Mac OS X 10_15_7) AppleWebKit/537.36 (KHTML, like Gecko) Chrome/98.0.4758.109 Safari/537.36",psycho,psycho,psycho,0,uniform,1,,,1,1,,0,0,0,0,0,0,0,,0,,,,0,7,0,7,38,38,0,0,0,46,6,0,0,0,0,38,0,6,0,0,6,6,46,m,16/02/2022,16/02/2022,22:58:29,Wed Mar 16 2022 22:58:29 GMT+0000 (Greenwich Mean Time),The main experiment item,yes,,0,0,C:\Users\dcgraham\Downloads,0,0,0,Slide15.jpg,no,mono,no,18,no,white,no,no,768,23058,3.6.1,psycho,psycho,ae2204,osweb,1.4.0,1,yes,621,,0,m,space,space,None,,,,None,m,space,,space,,enter,space,611,41998,10342,365,,,,3017,611,4741,,13768,,893,43563,2,psycho,809,1440,30,900,30,106,44,1440,1.64747E+12,1024,2,48000,-16,experiment,18844,even,MacIntel,14661,4313,114022,,119,,,119,119,134853,245933,119,137872,245417,119,109,,56674,246549,,3402,70457,4309,3402,245933,New experiment,41,106995,54,yes,1024
3000,,Stimuli,76,76,2000,2000,black,no,3124,Mozilla,Netscape,"5.0 (Macintosh; Intel Mac OS X 10_15_7) AppleWebKit/537.36 (KHTML, like Gecko) Chrome/98.0.4758.109 Safari/537.36",psycho,psycho,psycho,0,uniform,1,,,1,1,,0,0,0,0,0,0,0,,0,,,,0,7,0,7,39,39,0,0,0,47,6,0,0,0,0,39,0,6,0,0,6,6,47,None,16/02/2022,16/02/2022,22:58:29,Wed Mar 16 2022 22:58:29 GMT+0000 (Greenwich Mean Time),The main experiment item,yes,,0,0,C:\Users\dcgraham\Downloads,0,0,0,Slide8.jpg,no,mono,no,18,no,white,no,no,768,23058,3.6.1,psycho,psycho,ae2204,osweb,1.4.0,1,yes,621,,0,None,space,space,None,,,,None,None,space,,space,,enter,space,3016,41998,10342,365,,,,3017,3016,4741,,13768,,893,43563,2,psycho,809,1440,30,900,30,106,44,1440,1.64747E+12,1024,2,48000,-16,experiment,18844,even,MacIntel,14661,4313,114022,,119,,,119,119,134853,247066,119,137872,246551,119,109,,56674,250082,,3402,70457,4309,3402,247066,New experiment,42,110011,55,yes,1024
3000,,Stimuli,77,77,2018,2018,black,no,3124,Mozilla,Netscape,"5.0 (Macintosh; Intel Mac OS X 10_15_7) AppleWebKit/537.36 (KHTML, like Gecko) Chrome/98.0.4758.109 Safari/537.36",psycho,psycho,psycho,0,uniform,1,,,1,1,,0,0,0,0,0,0,0,,0,,,,0,7,0,7,40,40,0,0,0,48,6,0,0,0,0,40,0,6,0,0,6,6,48,None,16/02/2022,16/02/2022,22:58:29,Wed Mar 16 2022 22:58:29 GMT+0000 (Greenwich Mean Time),The main experiment item,yes,,0,0,C:\Users\dcgraham\Downloads,0,0,0,Slide1.jpg,no,mono,no,18,no,white,no,no,768,23058,3.6.1,psycho,psycho,ae2204,osweb,1.4.0,1,yes,621,,0,None,space,space,None,,,,None,None,space,,space,,enter,space,3017,41998,10342,365,,,,3017,3017,4741,,13768,,893,43563,2,psycho,809,1440,30,900,30,106,44,1440,1.64747E+12,1024,2,48000,-16,experiment,18844,even,MacIntel,14661,4313,114022,,119,,,119,119,134853,250598,119,137872,250085,119,109,,56674,253615,,3402,70457,4309,3402,250598,New experiment,43,113028,56,yes,1024
infinite,,Target,77,77,1994,1994,black,no,3124,Mozilla,Netscape,"5.0 (Macintosh; Intel Mac OS X 10_15_7) AppleWebKit/537.36 (KHTML, like Gecko) Chrome/98.0.4758.109 Safari/537.36",psycho,psycho,psycho,0,uniform,1,,,1,1,,0,0,0,0,0,0,0,,0,,,,0,7,0,7,41,41,0,0,0,49,6,0,0,0,0,41,0,6,0,0,6,6,49,z,16/02/2022,16/02/2022,22:58:29,Wed Mar 16 2022 22:58:29 GMT+0000 (Greenwich Mean Time),The main experiment item,yes,,0,0,C:\Users\dcgraham\Downloads,0,0,0,Slide12.jpg,no,mono,no,18,no,white,no,no,768,23058,3.6.1,psycho,psycho,ae2204,osweb,1.4.0,1,yes,621,,0,z,space,space,None,,,,None,z,space,,space,,enter,space,648,41998,10342,365,,,,3017,648,4741,,13768,,893,43563,2,psycho,809,1440,30,900,30,106,44,1440,1.64747E+12,1024,2,48000,-16,experiment,18844,even,MacIntel,14661,4313,114022,,119,,,119,119,134853,254132,119,137872,253618,119,109,,56674,254782,,3402,70457,4309,3402,254132,New experiment,44,113676,57,yes,1024
3000,,Stimuli,78,78,2012,2012,black,no,3124,Mozilla,Netscape,"5.0 (Macintosh; Intel Mac OS X 10_15_7) AppleWebKit/537.36 (KHTML, like Gecko) Chrome/98.0.4758.109 Safari/537.36",psycho,psycho,psycho,0,uniform,1,,,1,1,,0,0,0,0,0,0,0,,0,,,,0,7,0,7,42,42,0,0,0,50,6,0,0,0,0,42,0,6,0,0,6,6,50,None,16/02/2022,16/02/2022,22:58:29,Wed Mar 16 2022 22:58:29 GMT+0000 (Greenwich Mean Time),The main experiment item,yes,,0,0,C:\Users\dcgraham\Downloads,0,0,0,Slide8.jpg,no,mono,no,18,no,white,no,no,768,23058,3.6.1,psycho,psycho,ae2204,osweb,1.4.0,1,yes,621,,0,None,space,space,None,,,,None,None,space,,space,,enter,space,3016,41998,10342,365,,,,3017,3016,4741,,13768,,893,43563,2,psycho,809,1440,30,900,30,106,44,1440,1.64747E+12,1024,2,48000,-16,experiment,18844,even,MacIntel,14661,4313,114022,,119,,,119,119,134853,255299,119,137872,254784,119,109,,56674,258315,,3402,70457,4309,3402,255298,New experiment,45,116692,58,yes,1024
infinite,,Target,78,78,1989,1989,black,no,3124,Mozilla,Netscape,"5.0 (Macintosh; Intel Mac OS X 10_15_7) AppleWebKit/537.36 (KHTML, like Gecko) Chrome/98.0.4758.109 Safari/537.36",psycho,psycho,psycho,0,uniform,1,,,1,1,,0,0,0,0,0,0,0,,0,,,,0,7,0,7,43,43,0,0,0,51,6,0,0,0,0,43,0,6,0,0,6,6,51,m,16/02/2022,16/02/2022,22:58:29,Wed Mar 16 2022 22:58:29 GMT+0000 (Greenwich Mean Time),The main experiment item,yes,,0,0,C:\Users\dcgraham\Downloads,0,0,0,Slide5.jpg,no,mono,no,18,no,white,no,no,768,23058,3.6.1,psycho,psycho,ae2204,osweb,1.4.0,1,yes,621,,0,m,space,space,None,,,,None,m,space,,space,,enter,space,681,41998,10342,365,,,,3017,681,4741,,13768,,893,43563,2,psycho,809,1440,30,900,30,106,44,1440,1.64747E+12,1024,2,48000,-16,experiment,18844,even,MacIntel,14661,4313,114022,,119,,,119,119,134853,258832,119,137872,258317,119,109,,56674,259515,,3402,70457,4309,3402,258832,New experiment,46,117373,59,yes,1024
3000,,Stimuli,78,78,2007,2007,black,no,3124,Mozilla,Netscape,"5.0 (Macintosh; Intel Mac OS X 10_15_7) AppleWebKit/537.36 (KHTML, like Gecko) Chrome/98.0.4758.109 Safari/537.36",psycho,psycho,psycho,0,uniform,1,,,1,1,,0,0,0,0,0,0,0,,0,,,,0,7,0,7,44,44,0,0,0,52,6,0,0,0,0,44,0,6,0,0,6,6,52,None,16/02/2022,16/02/2022,22:58:29,Wed Mar 16 2022 22:58:29 GMT+0000 (Greenwich Mean Time),The main experiment item,yes,,0,0,C:\Users\dcgraham\Downloads,0,0,0,Slide2.jpg,no,mono,no,18,no,white,no,no,768,23058,3.6.1,psycho,psycho,ae2204,osweb,1.4.0,1,yes,621,,0,None,space,space,None,,,,None,None,space,,space,,enter,space,3017,41998,10342,365,,,,3017,3017,4741,,13768,,893,43563,2,psycho,809,1440,30,900,30,106,44,1440,1.64747E+12,1024,2,48000,-16,experiment,18844,even,MacIntel,14661,4313,114022,,119,,,119,119,134853,260032,119,137872,259516,119,109,,56674,263049,,3402,70457,4309,3402,260032,New experiment,47,120390,60,yes,1024
3000,,Stimuli,79,79,2023,2023,black,no,3124,Mozilla,Netscape,"5.0 (Macintosh; Intel Mac OS X 10_15_7) AppleWebKit/537.36 (KHTML, like Gecko) Chrome/98.0.4758.109 Safari/537.36",psycho,psycho,psycho,0,uniform,1,,,1,1,,0,0,0,0,0,0,0,,0,,,,0,7,0,7,45,45,0,0,0,53,6,0,0,0,0,45,0,6,0,0,6,6,53,None,16/02/2022,16/02/2022,22:58:29,Wed Mar 16 2022 22:58:29 GMT+0000 (Greenwich Mean Time),The main experiment item,yes,,0,0,C:\Users\dcgraham\Downloads,0,0,0,Slide13.jpg,no,mono,no,18,no,white,no,no,768,23058,3.6.1,psycho,psycho,ae2204,osweb,1.4.0,1,yes,621,,0,None,space,space,None,,,,None,None,space,,space,,enter,space,3016,41998,10342,365,,,,3017,3016,4741,,13768,,893,43563,2,psycho,809,1440,30,900,30,106,44,1440,1.64747E+12,1024,2,48000,-16,experiment,18844,even,MacIntel,14661,4313,114022,,119,,,119,119,134853,263565,119,137872,263050,119,109,,56674,266581,,3402,70457,4309,3402,263565,New experiment,48,123406,61,yes,1024
infinite,,Probe,77,77,2021,2021,black,no,3124,Mozilla,Netscape,"5.0 (Macintosh; Intel Mac OS X 10_15_7) AppleWebKit/537.36 (KHTML, like Gecko) Chrome/98.0.4758.109 Safari/537.36",psycho,psycho,psycho,0,uniform,0,,,1,0,,0,0,0,0,0,0,0,,0,,,,0,7,0,7,46,46,0,0,0,54,6,0,0,0,0,46,0,6,0,0,6,6,54,y;n,16/02/2022,16/02/2022,22:58:29,Wed Mar 16 2022 22:58:29 GMT+0000 (Greenwich Mean Time),The main experiment item,yes,,0,0,C:\Users\dcgraham\Downloads,0,0,0,wandering.jpg,no,mono,no,18,no,white,no,no,768,23058,3.6.1,psycho,psycho,ae2204,osweb,1.4.0,1,yes,621,,0,y,space,space,None,,,,None,y,space,,space,,enter,space,1916,41998,10342,365,,,,3017,1916,4741,,13768,,893,43563,2,psycho,809,1440,30,900,30,106,44,1440,1.64747E+12,1024,2,48000,-16,experiment,18844,even,MacIntel,14661,4313,114022,,119,,,119,119,134853,267099,119,137872,266583,119,109,,56674,269032,,3402,70457,4309,3402,267099,New experiment,48,125322,62,yes,1024
3000,,Stimuli,78,78,2037,2037,black,no,3124,Mozilla,Netscape,"5.0 (Macintosh; Intel Mac OS X 10_15_7) AppleWebKit/537.36 (KHTML, like Gecko) Chrome/98.0.4758.109 Safari/537.36",psycho,psycho,psycho,0,uniform,1,,,1,1,,0,0,0,0,0,0,0,,0,,,,0,7,0,7,47,47,0,0,0,55,6,0,0,0,0,47,0,6,0,0,6,6,55,None,16/02/2022,16/02/2022,22:58:29,Wed Mar 16 2022 22:58:29 GMT+0000 (Greenwich Mean Time),The main experiment item,yes,,0,0,C:\Users\dcgraham\Downloads,0,0,0,Slide1.jpg,no,mono,no,18,no,white,no,no,768,23058,3.6.1,psycho,psycho,ae2204,osweb,1.4.0,1,yes,621,,0,None,space,space,None,,,,None,None,space,,space,,enter,space,3017,41998,10342,365,,,,3017,3017,4741,,13768,,893,43563,2,psycho,809,1440,30,900,30,106,44,1440,1.64747E+12,1024,2,48000,-16,experiment,18844,even,MacIntel,14661,4313,114022,,119,,,119,119,134853,269548,119,137872,269033,119,109,,56674,272565,,3402,70457,4309,3402,269548,New experiment,49,128339,63,yes,1024
3000,,Stimuli,78,78,2052,2052,black,no,3124,Mozilla,Netscape,"5.0 (Macintosh; Intel Mac OS X 10_15_7) AppleWebKit/537.36 (KHTML, like Gecko) Chrome/98.0.4758.109 Safari/537.36",psycho,psycho,psycho,0,uniform,1,,,1,1,,0,0,0,0,0,0,0,,0,,,,0,7,0,7,48,48,0,0,0,56,6,0,0,0,0,48,0,6,0,0,6,6,56,None,16/02/2022,16/02/2022,22:58:29,Wed Mar 16 2022 22:58:29 GMT+0000 (Greenwich Mean Time),The main experiment item,yes,,0,0,C:\Users\dcgraham\Downloads,0,0,0,Slide8.jpg,no,mono,no,18,no,white,no,no,768,23058,3.6.1,psycho,psycho,ae2204,osweb,1.4.0,1,yes,621,,0,None,space,space,None,,,,None,None,space,,space,,enter,space,3016,41998,10342,365,,,,3017,3016,4741,,13768,,893,43563,2,psycho,809,1440,30,900,30,106,44,1440,1.64747E+12,1024,2,48000,-16,experiment,18844,even,MacIntel,14661,4313,114022,,119,,,119,119,134853,273082,119,137872,272567,119,109,,56674,276098,,3402,70457,4309,3402,273082,New experiment,50,131355,64,yes,1024
3000,,Stimuli,78,78,2067,2067,black,no,3124,Mozilla,Netscape,"5.0 (Macintosh; Intel Mac OS X 10_15_7) AppleWebKit/537.36 (KHTML, like Gecko) Chrome/98.0.4758.109 Safari/537.36",psycho,psycho,psycho,0,uniform,1,,,1,1,,0,0,0,0,0,0,0,,0,,,,0,7,0,7,49,49,0,0,0,57,6,0,0,0,0,49,0,6,0,0,6,6,57,None,16/02/2022,16/02/2022,22:58:29,Wed Mar 16 2022 22:58:29 GMT+0000 (Greenwich Mean Time),The main experiment item,yes,,0,0,C:\Users\dcgraham\Downloads,0,0,0,Slide2.jpg,no,mono,no,18,no,white,no,no,768,23058,3.6.1,psycho,psycho,ae2204,osweb,1.4.0,1,yes,621,,0,None,space,space,None,,,,None,None,space,,space,,enter,space,3016,41998,10342,365,,,,3017,3016,4741,,13768,,893,43563,2,psycho,809,1440,30,900,30,106,44,1440,1.64747E+12,1024,2,48000,-16,experiment,18844,even,MacIntel,14661,4313,114022,,119,,,119,119,134853,276615,119,137872,276100,119,109,,56674,279631,,3402,70457,4309,3402,276615,New experiment,51,134371,65,yes,1024
infinite,,Target,77,77,2045,2045,black,no,3124,Mozilla,Netscape,"5.0 (Macintosh; Intel Mac OS X 10_15_7) AppleWebKit/537.36 (KHTML, like Gecko) Chrome/98.0.4758.109 Safari/537.36",psycho,psycho,psycho,0,uniform,0,,,1,0,,0,0,0,0,0,0,0,,0,,,,0,7,0,7,50,50,0,0,0,58,6,0,0,0,0,50,0,6,0,0,6,6,58,z,16/02/2022,16/02/2022,22:58:29,Wed Mar 16 2022 22:58:29 GMT+0000 (Greenwich Mean Time),The main experiment item,yes,,0,0,C:\Users\dcgraham\Downloads,0,0,0,Slide5.jpg,no,mono,no,18,no,white,no,no,768,23058,3.6.1,psycho,psycho,ae2204,osweb,1.4.0,1,yes,621,,0,m,space,space,None,,,,None,m,space,,space,,enter,space,592,41998,10342,365,,,,3017,592,4741,,13768,,893,43563,2,psycho,809,1440,30,900,30,106,44,1440,1.64747E+12,1024,2,48000,-16,experiment,18844,even,MacIntel,14661,4313,114022,,119,,,119,119,134853,280148,119,137872,279633,119,109,,56674,280747,,3402,70457,4309,3402,280148,New experiment,51,134963,66,yes,1024
3000,,Stimuli,78,78,2059,2059,black,no,3124,Mozilla,Netscape,"5.0 (Macintosh; Intel Mac OS X 10_15_7) AppleWebKit/537.36 (KHTML, like Gecko) Chrome/98.0.4758.109 Safari/537.36",psycho,psycho,psycho,0,uniform,1,,,1,1,,0,0,0,0,0,0,0,,0,,,,0,7,0,7,51,51,0,0,0,59,6,0,0,0,0,51,0,6,0,0,6,6,59,None,16/02/2022,16/02/2022,22:58:29,Wed Mar 16 2022 22:58:29 GMT+0000 (Greenwich Mean Time),The main experiment item,yes,,0,0,C:\Users\dcgraham\Downloads,0,0,0,Slide7.jpg,no,mono,no,18,no,white,no,no,768,23058,3.6.1,psycho,psycho,ae2204,osweb,1.4.0,1,yes,621,,0,None,space,space,None,,,,None,None,space,,space,,enter,space,3017,41998,10342,365,,,,3017,3017,4741,,13768,,893,43563,2,psycho,809,1440,30,900,30,106,44,1440,1.64747E+12,1024,2,48000,-16,experiment,18844,even,MacIntel,14661,4313,114022,,119,,,119,119,134853,281264,119,137872,280749,119,109,,56674,284281,,3402,70457,4309,3402,281264,New experiment,52,137980,67,yes,1024
infinite,,Target,78,78,2036,2036,black,no,3124,Mozilla,Netscape,"5.0 (Macintosh; Intel Mac OS X 10_15_7) AppleWebKit/537.36 (KHTML, like Gecko) Chrome/98.0.4758.109 Safari/537.36",psycho,psycho,psycho,0,uniform,1,,,1,1,,0,0,0,0,0,0,0,,0,,,,0,7,0,7,52,52,0,0,0,60,6,0,0,0,0,52,0,6,0,0,6,6,60,m,16/02/2022,16/02/2022,22:58:29,Wed Mar 16 2022 22:58:29 GMT+0000 (Greenwich Mean Time),The main experiment item,yes,,0,0,C:\Users\dcgraham\Downloads,0,0,0,Slide11.jpg,no,mono,no,18,no,white,no,no,768,23058,3.6.1,psycho,psycho,ae2204,osweb,1.4.0,1,yes,621,,0,m,space,space,None,,,,None,m,space,,space,,enter,space,499,41998,10342,365,,,,3017,499,4741,,13768,,893,43563,2,psycho,809,1440,30,900,30,106,44,1440,1.64747E+12,1024,2,48000,-16,experiment,18844,even,MacIntel,14661,4313,114022,,119,,,119,119,134853,284799,119,137872,284283,119,109,,56674,285314,,3402,70457,4309,3402,284798,New experiment,53,138479,68,yes,1024
3000,,Stimuli,78,78,2051,2051,black,no,3124,Mozilla,Netscape,"5.0 (Macintosh; Intel Mac OS X 10_15_7) AppleWebKit/537.36 (KHTML, like Gecko) Chrome/98.0.4758.109 Safari/537.36",psycho,psycho,psycho,0,uniform,1,,,1,1,,0,0,0,0,0,0,0,,0,,,,0,7,0,7,53,53,0,0,0,61,6,0,0,0,0,53,0,6,0,0,6,6,61,None,16/02/2022,16/02/2022,22:58:29,Wed Mar 16 2022 22:58:29 GMT+0000 (Greenwich Mean Time),The main experiment item,yes,,0,0,C:\Users\dcgraham\Downloads,0,0,0,Slide8.jpg,no,mono,no,18,no,white,no,no,768,23058,3.6.1,psycho,psycho,ae2204,osweb,1.4.0,1,yes,621,,0,None,space,space,None,,,,None,None,space,,space,,enter,space,3016,41998,10342,365,,,,3017,3016,4741,,13768,,893,43563,2,psycho,809,1440,30,900,30,106,44,1440,1.64747E+12,1024,2,48000,-16,experiment,18844,even,MacIntel,14661,4313,114022,,119,,,119,119,134853,285831,119,137872,285316,119,109,,56674,288848,,3402,70457,4309,3402,285831,New experiment,54,141495,69,yes,1024
3000,,Stimuli,79,79,2064,2064,black,no,3124,Mozilla,Netscape,"5.0 (Macintosh; Intel Mac OS X 10_15_7) AppleWebKit/537.36 (KHTML, like Gecko) Chrome/98.0.4758.109 Safari/537.36",psycho,psycho,psycho,0,uniform,1,,,1,1,,0,0,0,0,0,0,0,,0,,,,0,7,0,7,54,54,0,0,0,62,6,0,0,0,0,54,0,6,0,0,6,6,62,None,16/02/2022,16/02/2022,22:58:29,Wed Mar 16 2022 22:58:29 GMT+0000 (Greenwich Mean Time),The main experiment item,yes,,0,0,C:\Users\dcgraham\Downloads,0,0,0,Slide2.jpg,no,mono,no,18,no,white,no,no,768,23058,3.6.1,psycho,psycho,ae2204,osweb,1.4.0,1,yes,621,,0,None,space,space,None,,,,None,None,space,,space,,enter,space,3016,41998,10342,365,,,,3017,3016,4741,,13768,,893,43563,2,psycho,809,1440,30,900,30,106,44,1440,1.64747E+12,1024,2,48000,-16,experiment,18844,even,MacIntel,14661,4313,114022,,119,,,119,119,134853,289364,119,137872,288850,119,109,,56674,292380,,3402,70457,4309,3402,289364,New experiment,55,144511,70,yes,1024
infinite,,Probe,77,77,2059,2059,black,no,3124,Mozilla,Netscape,"5.0 (Macintosh; Intel Mac OS X 10_15_7) AppleWebKit/537.36 (KHTML, like Gecko) Chrome/98.0.4758.109 Safari/537.36",psycho,psycho,psycho,0,uniform,0,,,1,0,,0,0,0,0,0,0,0,,0,,,,0,7,0,7,55,55,0,0,0,63,6,0,0,0,0,55,0,6,0,0,6,6,63,y;n,16/02/2022,16/02/2022,22:58:29,Wed Mar 16 2022 22:58:29 GMT+0000 (Greenwich Mean Time),The main experiment item,yes,,0,0,C:\Users\dcgraham\Downloads,0,0,0,wandering.jpg,no,mono,no,18,no,white,no,no,768,23058,3.6.1,psycho,psycho,ae2204,osweb,1.4.0,1,yes,621,,0,y,space,space,None,,,,None,y,space,,space,,enter,space,1675,41998,10342,365,,,,3017,1675,4741,,13768,,893,43563,2,psycho,809,1440,30,900,30,106,44,1440,1.64747E+12,1024,2,48000,-16,experiment,18844,even,MacIntel,14661,4313,114022,,119,,,119,119,134853,292898,119,137872,292383,119,109,,56674,294580,,3402,70457,4309,3402,292898,New experiment,55,146186,71,yes,1024
3000,,Stimuli,78,78,2072,2072,black,no,3124,Mozilla,Netscape,"5.0 (Macintosh; Intel Mac OS X 10_15_7) AppleWebKit/537.36 (KHTML, like Gecko) Chrome/98.0.4758.109 Safari/537.36",psycho,psycho,psycho,0,uniform,1,,,1,1,,0,0,0,0,0,0,0,,0,,,,0,7,0,7,56,56,0,0,0,64,6,0,0,0,0,56,0,6,0,0,6,6,64,None,16/02/2022,16/02/2022,22:58:29,Wed Mar 16 2022 22:58:29 GMT+0000 (Greenwich Mean Time),The main experiment item,yes,,0,0,C:\Users\dcgraham\Downloads,0,0,0,Slide13.jpg,no,mono,no,18,no,white,no,no,768,23058,3.6.1,psycho,psycho,ae2204,osweb,1.4.0,1,yes,621,,0,None,space,space,None,,,,None,None,space,,space,,enter,space,3015,41998,10342,365,,,,3017,3015,4741,,13768,,893,43563,2,psycho,809,1440,30,900,30,106,44,1440,1.64747E+12,1024,2,48000,-16,experiment,18844,even,MacIntel,14661,4313,114022,,119,,,119,119,134853,295098,119,137872,294582,119,109,,56674,298113,,3402,70457,4309,3402,295098,New experiment,56,149201,72,yes,1024
infinite,,Target,78,78,2054,2054,black,no,3124,Mozilla,Netscape,"5.0 (Macintosh; Intel Mac OS X 10_15_7) AppleWebKit/537.36 (KHTML, like Gecko) Chrome/98.0.4758.109 Safari/537.36",psycho,psycho,psycho,0,uniform,1,,,1,1,,0,0,0,0,0,0,0,,0,,,,0,7,0,7,57,57,0,0,0,65,6,0,0,0,0,57,0,6,0,0,6,6,65,z,16/02/2022,16/02/2022,22:58:29,Wed Mar 16 2022 22:58:29 GMT+0000 (Greenwich Mean Time),The main experiment item,yes,,0,0,C:\Users\dcgraham\Downloads,0,0,0,Slide16.jpg,no,mono,no,18,no,white,no,no,768,23058,3.6.1,psycho,psycho,ae2204,osweb,1.4.0,1,yes,621,,0,z,space,space,None,,,,None,z,space,,space,,enter,space,738,41998,10342,365,,,,3017,738,4741,,13768,,893,43563,2,psycho,809,1440,30,900,30,106,44,1440,1.64747E+12,1024,2,48000,-16,experiment,18844,even,MacIntel,14661,4313,114022,,119,,,119,119,134853,298631,119,137872,298116,119,109,,56674,299380,,3402,70457,4309,3402,298631,New experiment,57,149939,73,yes,1024
3000,,Stimuli,78,78,2067,2067,black,no,3124,Mozilla,Netscape,"5.0 (Macintosh; Intel Mac OS X 10_15_7) AppleWebKit/537.36 (KHTML, like Gecko) Chrome/98.0.4758.109 Safari/537.36",psycho,psycho,psycho,0,uniform,1,,,1,1,,0,0,0,0,0,0,0,,0,,,,0,7,0,7,58,58,0,0,0,66,6,0,0,0,0,58,0,6,0,0,6,6,66,None,16/02/2022,16/02/2022,22:58:29,Wed Mar 16 2022 22:58:29 GMT+0000 (Greenwich Mean Time),The main experiment item,yes,,0,0,C:\Users\dcgraham\Downloads,0,0,0,Slide2.jpg,no,mono,no,18,no,white,no,no,768,23058,3.6.1,psycho,psycho,ae2204,osweb,1.4.0,1,yes,621,,0,None,space,space,None,,,,None,None,space,,space,,enter,space,3015,41998,10342,365,,,,3017,3015,4741,,13768,,893,43563,2,psycho,809,1440,30,900,30,106,44,1440,1.64747E+12,1024,2,48000,-16,experiment,18844,even,MacIntel,14661,4313,114022,,119,,,119,119,134853,299898,119,137872,299382,119,109,,56674,302913,,3402,70457,4309,3402,299898,New experiment,58,152954,74,yes,1024
3000,,Stimuli,79,79,2080,2080,black,no,3124,Mozilla,Netscape,"5.0 (Macintosh; Intel Mac OS X 10_15_7) AppleWebKit/537.36 (KHTML, like Gecko) Chrome/98.0.4758.109 Safari/537.36",psycho,psycho,psycho,0,uniform,1,,,1,1,,0,0,0,0,0,0,0,,0,,,,0,7,0,7,59,59,0,0,0,67,6,0,0,0,0,59,0,6,0,0,6,6,67,None,16/02/2022,16/02/2022,22:58:29,Wed Mar 16 2022 22:58:29 GMT+0000 (Greenwich Mean Time),The main experiment item,yes,,0,0,C:\Users\dcgraham\Downloads,0,0,0,Slide14.jpg,no,mono,no,18,no,white,no,no,768,23058,3.6.1,psycho,psycho,ae2204,osweb,1.4.0,1,yes,621,,0,None,space,space,None,,,,None,None,space,,space,,enter,space,3017,41998,10342,365,,,,3017,3017,4741,,13768,,893,43563,2,psycho,809,1440,30,900,30,106,44,1440,1.64747E+12,1024,2,48000,-16,experiment,18844,even,MacIntel,14661,4313,114022,,119,,,119,119,134853,303430,119,137872,302915,119,109,,56674,306447,,3402,70457,4309,3402,303430,New experiment,59,155971,75,yes,1024
3000,,Stimuli,79,79,2092,2092,black,no,3124,Mozilla,Netscape,"5.0 (Macintosh; Intel Mac OS X 10_15_7) AppleWebKit/537.36 (KHTML, like Gecko) Chrome/98.0.4758.109 Safari/537.36",psycho,psycho,psycho,0,uniform,1,,,1,1,,0,0,0,0,0,0,0,,0,,,,0,7,0,7,60,60,0,0,0,68,6,0,0,0,0,60,0,6,0,0,6,6,68,None,16/02/2022,16/02/2022,22:58:29,Wed Mar 16 2022 22:58:29 GMT+0000 (Greenwich Mean Time),The main experiment item,yes,,0,0,C:\Users\dcgraham\Downloads,0,0,0,Slide13.jpg,no,mono,no,18,no,white,no,no,768,23058,3.6.1,psycho,psycho,ae2204,osweb,1.4.0,1,yes,621,,0,None,space,space,None,,,,None,None,space,,space,,enter,space,3015,41998,10342,365,,,,3017,3015,4741,,13768,,893,43563,2,psycho,809,1440,30,900,30,106,44,1440,1.64747E+12,1024,2,48000,-16,experiment,18844,even,MacIntel,14661,4313,114022,,119,,,119,119,134853,306964,119,137872,306448,119,109,,56674,309979,,3402,70457,4309,3402,306964,New experiment,60,158986,76,yes,1024
3000,,Stimuli,78,78,2076,2076,black,no,3124,Mozilla,Netscape,"5.0 (Macintosh; Intel Mac OS X 10_15_7) AppleWebKit/537.36 (KHTML, like Gecko) Chrome/98.0.4758.109 Safari/537.36",psycho,psycho,psycho,0,uniform,0,,,1,0,,0,0,0,0,0,0,0,,0,,,,0,7,0,7,61,61,0,0,0,69,6,0,0,0,0,61,0,6,0,0,6,6,69,None,16/02/2022,16/02/2022,22:58:29,Wed Mar 16 2022 22:58:29 GMT+0000 (Greenwich Mean Time),The main experiment item,yes,,0,0,C:\Users\dcgraham\Downloads,0,0,0,Slide3.jpg,no,mono,no,18,no,white,no,no,768,23058,3.6.1,psycho,psycho,ae2204,osweb,1.4.0,1,yes,621,,0,m,space,space,None,,,,None,m,space,,space,,enter,space,844,41998,10342,365,,,,3017,844,4741,,13768,,893,43563,2,psycho,809,1440,30,900,30,106,44,1440,1.64747E+12,1024,2,48000,-16,experiment,18844,even,MacIntel,14661,4313,114022,,119,,,119,119,134853,310497,119,137872,309981,119,109,,56674,311346,,3402,70457,4309,3402,310497,New experiment,60,159830,77,yes,1024
infinite,,Target,77,77,2058,2058,black,no,3124,Mozilla,Netscape,"5.0 (Macintosh; Intel Mac OS X 10_15_7) AppleWebKit/537.36 (KHTML, like Gecko) Chrome/98.0.4758.109 Safari/537.36",psycho,psycho,psycho,0,uniform,0,,,1,0,,0,0,0,0,0,0,0,,0,,,,0,7,0,7,62,62,0,0,0,70,6,0,0,0,0,62,0,6,0,0,6,6,70,z,16/02/2022,16/02/2022,22:58:29,Wed Mar 16 2022 22:58:29 GMT+0000 (Greenwich Mean Time),The main experiment item,yes,,0,0,C:\Users\dcgraham\Downloads,0,0,0,Slide11.jpg,no,mono,no,18,no,white,no,no,768,23058,3.6.1,psycho,psycho,ae2204,osweb,1.4.0,1,yes,621,,0,m,space,space,None,,,,None,m,space,,space,,enter,space,716,41998,10342,365,,,,3017,716,4741,,13768,,893,43563,2,psycho,809,1440,30,900,30,106,44,1440,1.64747E+12,1024,2,48000,-16,experiment,18844,even,MacIntel,14661,4313,114022,,119,,,119,119,134853,311864,119,137872,311348,119,109,,56674,312580,,3402,70457,4309,3402,311864,New experiment,60,160546,78,yes,1024
3000,,Stimuli,77,77,2070,2070,black,no,3124,Mozilla,Netscape,"5.0 (Macintosh; Intel Mac OS X 10_15_7) AppleWebKit/537.36 (KHTML, like Gecko) Chrome/98.0.4758.109 Safari/537.36",psycho,psycho,psycho,0,uniform,1,,,1,1,,0,0,0,0,0,0,0,,0,,,,0,7,0,7,63,63,0,0,0,71,6,0,0,0,0,63,0,6,0,0,6,6,71,None,16/02/2022,16/02/2022,22:58:29,Wed Mar 16 2022 22:58:29 GMT+0000 (Greenwich Mean Time),The main experiment item,yes,,0,0,C:\Users\dcgraham\Downloads,0,0,0,Slide1.jpg,no,mono,no,18,no,white,no,no,768,23058,3.6.1,psycho,psycho,ae2204,osweb,1.4.0,1,yes,621,,0,None,space,space,None,,,,None,None,space,,space,,enter,space,3016,41998,10342,365,,,,3017,3016,4741,,13768,,893,43563,2,psycho,809,1440,30,900,30,106,44,1440,1.64747E+12,1024,2,48000,-16,experiment,18844,even,MacIntel,14661,4313,114022,,119,,,119,119,134853,313097,119,137872,312581,119,109,,56674,316113,,3402,70457,4309,3402,313097,New experiment,61,163562,79,yes,1024
infinite,,Target,78,78,2051,2051,black,no,3124,Mozilla,Netscape,"5.0 (Macintosh; Intel Mac OS X 10_15_7) AppleWebKit/537.36 (KHTML, like Gecko) Chrome/98.0.4758.109 Safari/537.36",psycho,psycho,psycho,0,uniform,1,,,1,1,,0,0,0,0,0,0,0,,0,,,,0,7,0,7,64,64,0,0,0,72,6,0,0,0,0,64,0,6,0,0,6,6,72,m,16/02/2022,16/02/2022,22:58:29,Wed Mar 16 2022 22:58:29 GMT+0000 (Greenwich Mean Time),The main experiment item,yes,,0,0,C:\Users\dcgraham\Downloads,0,0,0,Slide17.jpg,no,mono,no,18,no,white,no,no,768,23058,3.6.1,psycho,psycho,ae2204,osweb,1.4.0,1,yes,621,,0,m,space,space,None,,,,None,m,space,,space,,enter,space,533,41998,10342,365,,,,3017,533,4741,,13768,,893,43563,2,psycho,809,1440,30,900,30,106,44,1440,1.64747E+12,1024,2,48000,-16,experiment,18844,even,MacIntel,14661,4313,114022,,119,,,119,119,134853,316630,119,137872,316114,119,109,,56674,317179,,3402,70457,4309,3402,316630,New experiment,62,164095,80,yes,1024
3000,,Stimuli,78,78,2063,2063,black,no,3124,Mozilla,Netscape,"5.0 (Macintosh; Intel Mac OS X 10_15_7) AppleWebKit/537.36 (KHTML, like Gecko) Chrome/98.0.4758.109 Safari/537.36",psycho,psycho,psycho,0,uniform,1,,,1,1,,0,0,0,0,0,0,0,,0,,,,0,7,0,7,65,65,0,0,0,73,6,0,0,0,0,65,0,6,0,0,6,6,73,None,16/02/2022,16/02/2022,22:58:29,Wed Mar 16 2022 22:58:29 GMT+0000 (Greenwich Mean Time),The main experiment item,yes,,0,0,C:\Users\dcgraham\Downloads,0,0,0,Slide13.jpg,no,mono,no,18,no,white,no,no,768,23058,3.6.1,psycho,psycho,ae2204,osweb,1.4.0,1,yes,621,,0,None,space,space,None,,,,None,None,space,,space,,enter,space,3001,41998,10342,365,,,,3017,3001,4741,,13768,,893,43563,2,psycho,809,1440,30,900,30,106,44,1440,1.64747E+12,1024,2,48000,-16,experiment,18844,even,MacIntel,14661,4313,114022,,119,,,119,119,134853,317696,119,137872,317180,119,109,,56674,320697,,3402,70457,4309,3402,317696,New experiment,63,167096,81,yes,1024
infinite,,Target,78,78,2045,2045,black,no,3124,Mozilla,Netscape,"5.0 (Macintosh; Intel Mac OS X 10_15_7) AppleWebKit/537.36 (KHTML, like Gecko) Chrome/98.0.4758.109 Safari/537.36",psycho,psycho,psycho,0,uniform,1,,,1,1,,0,0,0,0,0,0,0,,0,,,,0,7,0,7,66,66,0,0,0,74,6,0,0,0,0,66,0,6,0,0,6,6,74,m,16/02/2022,16/02/2022,22:58:29,Wed Mar 16 2022 22:58:29 GMT+0000 (Greenwich Mean Time),The main experiment item,yes,,0,0,C:\Users\dcgraham\Downloads,0,0,0,Slide15.jpg,no,mono,no,18,no,white,no,no,768,23058,3.6.1,psycho,psycho,ae2204,osweb,1.4.0,1,yes,621,,0,m,space,space,None,,,,None,m,space,,space,,enter,space,631,41998,10342,365,,,,3017,631,4741,,13768,,893,43563,2,psycho,809,1440,30,900,30,106,44,1440,1.64747E+12,1024,2,48000,-16,experiment,18844,even,MacIntel,14661,4313,114022,,119,,,119,119,134853,321215,119,137872,320700,119,109,,56674,321846,,3402,70457,4309,3402,321214,New experiment,64,167727,82,yes,1024
3000,,Stimuli,78,78,2057,2057,black,no,3124,Mozilla,Netscape,"5.0 (Macintosh; Intel Mac OS X 10_15_7) AppleWebKit/537.36 (KHTML, like Gecko) Chrome/98.0.4758.109 Safari/537.36",psycho,psycho,psycho,0,uniform,1,,,1,1,,0,0,0,0,0,0,0,,0,,,,0,7,0,7,67,67,0,0,0,75,6,0,0,0,0,67,0,6,0,0,6,6,75,None,16/02/2022,16/02/2022,22:58:29,Wed Mar 16 2022 22:58:29 GMT+0000 (Greenwich Mean Time),The main experiment item,yes,,0,0,C:\Users\dcgraham\Downloads,0,0,0,Slide2.jpg,no,mono,no,18,no,white,no,no,768,23058,3.6.1,psycho,psycho,ae2204,osweb,1.4.0,1,yes,621,,0,None,space,space,None,,,,None,None,space,,space,,enter,space,3016,41998,10342,365,,,,3017,3016,4741,,13768,,893,43563,2,psycho,809,1440,30,900,30,106,44,1440,1.64747E+12,1024,2,48000,-16,experiment,18844,even,MacIntel,14661,4313,114022,,119,,,119,119,134853,322364,119,137872,321848,119,109,,56674,325380,,3402,70457,4309,3402,322364,New experiment,65,170743,83,yes,1024
3000,,Stimuli,79,79,2069,2069,black,no,3124,Mozilla,Netscape,"5.0 (Macintosh; Intel Mac OS X 10_15_7) AppleWebKit/537.36 (KHTML, like Gecko) Chrome/98.0.4758.109 Safari/537.36",psycho,psycho,psycho,0,uniform,1,,,1,1,,0,0,0,0,0,0,0,,0,,,,0,7,0,7,68,68,0,0,0,76,6,0,0,0,0,68,0,6,0,0,6,6,76,None,16/02/2022,16/02/2022,22:58:29,Wed Mar 16 2022 22:58:29 GMT+0000 (Greenwich Mean Time),The main experiment item,yes,,0,0,C:\Users\dcgraham\Downloads,0,0,0,Slide1.jpg,no,mono,no,18,no,white,no,no,768,23058,3.6.1,psycho,psycho,ae2204,osweb,1.4.0,1,yes,621,,0,None,space,space,None,,,,None,None,space,,space,,enter,space,3015,41998,10342,365,,,,3017,3015,4741,,13768,,893,43563,2,psycho,809,1440,30,900,30,106,44,1440,1.64747E+12,1024,2,48000,-16,experiment,18844,even,MacIntel,14661,4313,114022,,119,,,119,119,134853,325897,119,137872,325383,119,109,,56674,328912,,3402,70457,4309,3402,325897,New experiment,66,173758,84,yes,1024
3000,,Stimuli,79,79,2080,2080,black,no,3124,Mozilla,Netscape,"5.0 (Macintosh; Intel Mac OS X 10_15_7) AppleWebKit/537.36 (KHTML, like Gecko) Chrome/98.0.4758.109 Safari/537.36",psycho,psycho,psycho,0,uniform,1,,,1,1,,0,0,0,0,0,0,0,,0,,,,0,7,0,7,69,69,0,0,0,77,6,0,0,0,0,69,0,6,0,0,6,6,77,None,16/02/2022,16/02/2022,22:58:29,Wed Mar 16 2022 22:58:29 GMT+0000 (Greenwich Mean Time),The main experiment item,yes,,0,0,C:\Users\dcgraham\Downloads,0,0,0,Slide8.jpg,no,mono,no,18,no,white,no,no,768,23058,3.6.1,psycho,psycho,ae2204,osweb,1.4.0,1,yes,621,,0,None,space,space,None,,,,None,None,space,,space,,enter,space,3016,41998,10342,365,,,,3017,3016,4741,,13768,,893,43563,2,psycho,809,1440,30,900,30,106,44,1440,1.64747E+12,1024,2,48000,-16,experiment,18844,even,MacIntel,14661,4313,114022,,119,,,119,119,134853,329431,119,137872,328916,119,109,,56674,332447,,3402,70457,4309,3402,329431,New experiment,67,176774,85,yes,1024
infinite,,Target,79,79,2063,2063,black,no,3124,Mozilla,Netscape,"5.0 (Macintosh; Intel Mac OS X 10_15_7) AppleWebKit/537.36 (KHTML, like Gecko) Chrome/98.0.4758.109 Safari/537.36",psycho,psycho,psycho,0,uniform,1,,,1,1,,0,0,0,0,0,0,0,,0,,,,0,7,0,7,70,70,0,0,0,78,6,0,0,0,0,70,0,6,0,0,6,6,78,m,16/02/2022,16/02/2022,22:58:29,Wed Mar 16 2022 22:58:29 GMT+0000 (Greenwich Mean Time),The main experiment item,yes,,0,0,C:\Users\dcgraham\Downloads,0,0,0,Slide10.jpg,no,mono,no,18,no,white,no,no,768,23058,3.6.1,psycho,psycho,ae2204,osweb,1.4.0,1,yes,621,,0,m,space,space,None,,,,None,m,space,,space,,enter,space,651,41998,10342,365,,,,3017,651,4741,,13768,,893,43563,2,psycho,809,1440,30,900,30,106,44,1440,1.64747E+12,1024,2,48000,-16,experiment,18844,even,MacIntel,14661,4313,114022,,119,,,119,119,134853,332964,119,137872,332449,119,109,,56674,333631,,3402,70457,4309,3402,332964,New experiment,68,177425,86,yes,1024
3000,,Stimuli,79,79,2074,2074,black,no,3124,Mozilla,Netscape,"5.0 (Macintosh; Intel Mac OS X 10_15_7) AppleWebKit/537.36 (KHTML, like Gecko) Chrome/98.0.4758.109 Safari/537.36",psycho,psycho,psycho,0,uniform,1,,,1,1,,0,0,0,0,0,0,0,,0,,,,0,7,0,7,71,71,0,0,0,79,6,0,0,0,0,71,0,6,0,0,6,6,79,None,16/02/2022,16/02/2022,22:58:29,Wed Mar 16 2022 22:58:29 GMT+0000 (Greenwich Mean Time),The main experiment item,yes,,0,0,C:\Users\dcgraham\Downloads,0,0,0,Slide7.jpg,no,mono,no,18,no,white,no,no,768,23058,3.6.1,psycho,psycho,ae2204,osweb,1.4.0,1,yes,621,,0,None,space,space,None,,,,None,None,space,,space,,enter,space,3014,41998,10342,365,,,,3017,3014,4741,,13768,,893,43563,2,psycho,809,1440,30,900,30,106,44,1440,1.64747E+12,1024,2,48000,-16,experiment,18844,even,MacIntel,14661,4313,114022,,119,,,119,119,134853,334148,119,137872,333634,119,109,,56674,337162,,3402,70457,4309,3402,334147,New experiment,69,180439,87,yes,1024
infinite,,Target,80,80,2059,2059,black,no,3124,Mozilla,Netscape,"5.0 (Macintosh; Intel Mac OS X 10_15_7) AppleWebKit/537.36 (KHTML, like Gecko) Chrome/98.0.4758.109 Safari/537.36",psycho,psycho,psycho,0,uniform,1,,,1,1,,0,0,0,0,0,0,0,,0,,,,0,7,0,7,72,72,0,0,0,80,6,0,0,0,0,72,0,6,0,0,6,6,80,z,16/02/2022,16/02/2022,22:58:29,Wed Mar 16 2022 22:58:29 GMT+0000 (Greenwich Mean Time),The main experiment item,yes,,0,0,C:\Users\dcgraham\Downloads,0,0,0,Slide12.jpg,no,mono,no,18,no,white,no,no,768,23058,3.6.1,psycho,psycho,ae2204,osweb,1.4.0,1,yes,621,,0,z,space,space,None,,,,None,z,space,,space,,enter,space,760,41998,10342,365,,,,3017,760,4741,,13768,,893,43563,2,psycho,809,1440,30,900,30,106,44,1440,1.64747E+12,1024,2,48000,-16,experiment,18844,even,MacIntel,14661,4313,114022,,119,,,119,119,134853,337680,119,137872,337165,119,109,,56674,338446,,3402,70457,4309,3402,337680,New experiment,70,181199,88,yes,1024
infinite,,Probe,79,79,2053,2053,black,no,3124,Mozilla,Netscape,"5.0 (Macintosh; Intel Mac OS X 10_15_7) AppleWebKit/537.36 (KHTML, like Gecko) Chrome/98.0.4758.109 Safari/537.36",psycho,psycho,psycho,0,uniform,0,,,1,0,,0,0,0,0,0,0,0,,0,,,,0,7,0,7,73,73,0,0,0,81,6,0,0,0,0,73,0,6,0,0,6,6,81,y;n,16/02/2022,16/02/2022,22:58:29,Wed Mar 16 2022 22:58:29 GMT+0000 (Greenwich Mean Time),The main experiment item,yes,,0,0,C:\Users\dcgraham\Downloads,0,0,0,wandering.jpg,no,mono,no,18,no,white,no,no,768,23058,3.6.1,psycho,psycho,ae2204,osweb,1.4.0,1,yes,621,,0,y,space,space,None,,,,None,y,space,,space,,enter,space,1550,41998,10342,365,,,,3017,1550,4741,,13768,,893,43563,2,psycho,809,1440,30,900,30,106,44,1440,1.64747E+12,1024,2,48000,-16,experiment,18844,even,MacIntel,14661,4313,114022,,119,,,119,119,134853,338963,119,137872,338449,119,109,,56674,340530,,3402,70457,4309,3402,338963,New experiment,70,182749,89,yes,1024
3000,,Stimuli,79,79,2064,2064,black,no,3124,Mozilla,Netscape,"5.0 (Macintosh; Intel Mac OS X 10_15_7) AppleWebKit/537.36 (KHTML, like Gecko) Chrome/98.0.4758.109 Safari/537.36",psycho,psycho,psycho,0,uniform,1,,,1,1,,0,0,0,0,0,0,0,,0,,,,0,7,0,7,74,74,0,0,0,82,6,0,0,0,0,74,0,6,0,0,6,6,82,None,16/02/2022,16/02/2022,22:58:29,Wed Mar 16 2022 22:58:29 GMT+0000 (Greenwich Mean Time),The main experiment item,yes,,0,0,C:\Users\dcgraham\Downloads,0,0,0,Slide13.jpg,no,mono,no,18,no,white,no,no,768,23058,3.6.1,psycho,psycho,ae2204,osweb,1.4.0,1,yes,621,,0,None,space,space,None,,,,None,None,space,,space,,enter,space,3015,41998,10342,365,,,,3017,3015,4741,,13768,,893,43563,2,psycho,809,1440,30,900,30,106,44,1440,1.64747E+12,1024,2,48000,-16,experiment,18844,even,MacIntel,14661,4313,114022,,119,,,119,119,134853,341047,119,137872,340534,119,109,,56674,344063,,3402,70457,4309,3402,341047,New experiment,71,185764,90,yes,1024
3000,,Stimuli,79,79,2074,2074,black,no,3124,Mozilla,Netscape,"5.0 (Macintosh; Intel Mac OS X 10_15_7) AppleWebKit/537.36 (KHTML, like Gecko) Chrome/98.0.4758.109 Safari/537.36",psycho,psycho,psycho,0,uniform,1,,,1,1,,0,0,0,0,0,0,0,,0,,,,0,7,0,7,75,75,0,0,0,83,6,0,0,0,0,75,0,6,0,0,6,6,83,None,16/02/2022,16/02/2022,22:58:29,Wed Mar 16 2022 22:58:29 GMT+0000 (Greenwich Mean Time),The main experiment item,yes,,0,0,C:\Users\dcgraham\Downloads,0,0,0,Slide14.jpg,no,mono,no,18,no,white,no,no,768,23058,3.6.1,psycho,psycho,ae2204,osweb,1.4.0,1,yes,621,,0,None,space,space,None,,,,None,None,space,,space,,enter,space,3015,41998,10342,365,,,,3017,3015,4741,,13768,,893,43563,2,psycho,809,1440,30,900,30,106,44,1440,1.64747E+12,1024,2,48000,-16,experiment,18844,even,MacIntel,14661,4313,114022,,119,,,119,119,134853,344581,119,137872,344066,119,109,,56674,347596,,3402,70457,4309,3402,344580,New experiment,72,188779,91,yes,1024
infinite,,Target,79,79,2059,2059,black,no,3124,Mozilla,Netscape,"5.0 (Macintosh; Intel Mac OS X 10_15_7) AppleWebKit/537.36 (KHTML, like Gecko) Chrome/98.0.4758.109 Safari/537.36",psycho,psycho,psycho,0,uniform,1,,,1,1,,0,0,0,0,0,0,0,,0,,,,0,7,0,7,76,76,0,0,0,84,6,0,0,0,0,76,0,6,0,0,6,6,84,z,16/02/2022,16/02/2022,22:58:29,Wed Mar 16 2022 22:58:29 GMT+0000 (Greenwich Mean Time),The main experiment item,yes,,0,0,C:\Users\dcgraham\Downloads,0,0,0,Slide16.jpg,no,mono,no,18,no,white,no,no,768,23058,3.6.1,psycho,psycho,ae2204,osweb,1.4.0,1,yes,621,,0,z,space,space,None,,,,None,z,space,,space,,enter,space,638,41998,10342,365,,,,3017,638,4741,,13768,,893,43563,2,psycho,809,1440,30,900,30,106,44,1440,1.64747E+12,1024,2,48000,-16,experiment,18844,even,MacIntel,14661,4313,114022,,119,,,119,119,134853,348113,119,137872,347602,119,109,,56674,348762,,3402,70457,4309,3402,348113,New experiment,73,189417,92,yes,1024
infinite,,Target,80,80,2044,2044,black,no,3124,Mozilla,Netscape,"5.0 (Macintosh; Intel Mac OS X 10_15_7) AppleWebKit/537.36 (KHTML, like Gecko) Chrome/98.0.4758.109 Safari/537.36",psycho,psycho,psycho,0,uniform,1,,,1,1,,0,0,0,0,0,0,0,,0,,,,0,7,0,7,77,77,0,0,0,85,6,0,0,0,0,77,0,6,0,0,6,6,85,z,16/02/2022,16/02/2022,22:58:29,Wed Mar 16 2022 22:58:29 GMT+0000 (Greenwich Mean Time),The main experiment item,yes,,0,0,C:\Users\dcgraham\Downloads,0,0,0,Slide18.jpg,no,mono,no,18,no,white,no,no,768,23058,3.6.1,psycho,psycho,ae2204,osweb,1.4.0,1,yes,621,,0,z,space,space,None,,,,None,z,space,,space,,enter,space,700,41998,10342,365,,,,3017,700,4741,,13768,,893,43563,2,psycho,809,1440,30,900,30,106,44,1440,1.64747E+12,1024,2,48000,-16,experiment,18844,even,MacIntel,14661,4313,114022,,119,,,119,119,134853,349280,119,137872,348765,119,109,,56674,349996,,3402,70457,4309,3402,349280,New experiment,74,190117,93,yes,1024
3000,,Stimuli,80,80,2055,2055,black,no,3124,Mozilla,Netscape,"5.0 (Macintosh; Intel Mac OS X 10_15_7) AppleWebKit/537.36 (KHTML, like Gecko) Chrome/98.0.4758.109 Safari/537.36",psycho,psycho,psycho,0,uniform,1,,,1,1,,0,0,0,0,0,0,0,,0,,,,0,7,0,7,78,78,0,0,0,86,6,0,0,0,0,78,0,6,0,0,6,6,86,None,16/02/2022,16/02/2022,22:58:29,Wed Mar 16 2022 22:58:29 GMT+0000 (Greenwich Mean Time),The main experiment item,yes,,0,0,C:\Users\dcgraham\Downloads,0,0,0,Slide1.jpg,no,mono,no,18,no,white,no,no,768,23058,3.6.1,psycho,psycho,ae2204,osweb,1.4.0,1,yes,621,,0,None,space,space,None,,,,None,None,space,,space,,enter,space,3015,41998,10342,365,,,,3017,3015,4741,,13768,,893,43563,2,psycho,809,1440,30,900,30,106,44,1440,1.64747E+12,1024,2,48000,-16,experiment,18844,even,MacIntel,14661,4313,114022,,119,,,119,119,134853,350514,119,137872,349999,119,109,,56674,353529,,3402,70457,4309,3402,350513,New experiment,75,193132,94,yes,1024
3000,,Stimuli,80,80,2065,2065,black,no,3124,Mozilla,Netscape,"5.0 (Macintosh; Intel Mac OS X 10_15_7) AppleWebKit/537.36 (KHTML, like Gecko) Chrome/98.0.4758.109 Safari/537.36",psycho,psycho,psycho,0,uniform,1,,,1,1,,0,0,0,0,0,0,0,,0,,,,0,7,0,7,79,79,0,0,0,87,6,0,0,0,0,79,0,6,0,0,6,6,87,None,16/02/2022,16/02/2022,22:58:29,Wed Mar 16 2022 22:58:29 GMT+0000 (Greenwich Mean Time),The main experiment item,yes,,0,0,C:\Users\dcgraham\Downloads,0,0,0,Slide2.jpg,no,mono,no,18,no,white,no,no,768,23058,3.6.1,psycho,psycho,ae2204,osweb,1.4.0,1,yes,621,,0,None,space,space,None,,,,None,None,space,,space,,enter,space,3017,41998,10342,365,,,,3017,3017,4741,,13768,,893,43563,2,psycho,809,1440,30,900,30,106,44,1440,1.64747E+12,1024,2,48000,-16,experiment,18844,even,MacIntel,14661,4313,114022,,119,,,119,119,134853,354046,119,137872,353532,119,109,,56674,357063,,3402,70457,4309,3402,354046,New experiment,76,196149,95,yes,1024
infinite,,Target,80,80,2051,2051,black,no,3124,Mozilla,Netscape,"5.0 (Macintosh; Intel Mac OS X 10_15_7) AppleWebKit/537.36 (KHTML, like Gecko) Chrome/98.0.4758.109 Safari/537.36",psycho,psycho,psycho,0,uniform,1,,,1,1,,0,0,0,0,0,0,0,,0,,,,0,7,0,7,80,80,0,0,0,88,6,0,0,0,0,80,0,6,0,0,6,6,88,m,16/02/2022,16/02/2022,22:58:29,Wed Mar 16 2022 22:58:29 GMT+0000 (Greenwich Mean Time),The main experiment item,yes,,0,0,C:\Users\dcgraham\Downloads,0,0,0,Slide10.jpg,no,mono,no,18,no,white,no,no,768,23058,3.6.1,psycho,psycho,ae2204,osweb,1.4.0,1,yes,621,,0,m,space,space,None,,,,None,m,space,,space,,enter,space,776,41998,10342,365,,,,3017,776,4741,,13768,,893,43563,2,psycho,809,1440,30,900,30,106,44,1440,1.64747E+12,1024,2,48000,-16,experiment,18844,even,MacIntel,14661,4313,114022,,119,,,119,119,134853,357579,119,137872,357077,119,109,,56674,358362,,3402,70457,4309,3402,357579,New experiment,77,196925,96,yes,1024
3000,,Stimuli,80,80,2061,2061,black,no,3124,Mozilla,Netscape,"5.0 (Macintosh; Intel Mac OS X 10_15_7) AppleWebKit/537.36 (KHTML, like Gecko) Chrome/98.0.4758.109 Safari/537.36",psycho,psycho,psycho,0,uniform,1,,,1,1,,0,0,0,0,0,0,0,,0,,,,0,7,0,7,81,81,0,0,0,89,6,0,0,0,0,81,0,6,0,0,6,6,89,None,16/02/2022,16/02/2022,22:58:29,Wed Mar 16 2022 22:58:29 GMT+0000 (Greenwich Mean Time),The main experiment item,yes,,0,0,C:\Users\dcgraham\Downloads,0,0,0,Slide14.jpg,no,mono,no,18,no,white,no,no,768,23058,3.6.1,psycho,psycho,ae2204,osweb,1.4.0,1,yes,621,,0,None,space,space,None,,,,None,None,space,,space,,enter,space,3016,41998,10342,365,,,,3017,3016,4741,,13768,,893,43563,2,psycho,809,1440,30,900,30,106,44,1440,1.64747E+12,1024,2,48000,-16,experiment,18844,even,MacIntel,14661,4313,114022,,119,,,119,119,134853,358879,119,137872,358365,119,109,,56674,361896,,3402,70457,4309,3402,358879,New experiment,78,199941,97,yes,1024
infinite,,Target,81,81,2049,2049,black,no,3124,Mozilla,Netscape,"5.0 (Macintosh; Intel Mac OS X 10_15_7) AppleWebKit/537.36 (KHTML, like Gecko) Chrome/98.0.4758.109 Safari/537.36",psycho,psycho,psycho,0,uniform,1,,,1,1,,0,0,0,0,0,0,0,,0,,,,0,7,0,7,82,82,0,0,0,90,6,0,0,0,0,82,0,6,0,0,6,6,90,z,16/02/2022,16/02/2022,22:58:29,Wed Mar 16 2022 22:58:29 GMT+0000 (Greenwich Mean Time),The main experiment item,yes,,0,0,C:\Users\dcgraham\Downloads,0,0,0,Slide9.jpg,no,mono,no,18,no,white,no,no,768,23058,3.6.1,psycho,psycho,ae2204,osweb,1.4.0,1,yes,621,,0,z,space,space,None,,,,None,z,space,,space,,enter,space,870,41998,10342,365,,,,3017,870,4741,,13768,,893,43563,2,psycho,809,1440,30,900,30,106,44,1440,1.64747E+12,1024,2,48000,-16,experiment,18844,even,MacIntel,14661,4313,114022,,119,,,119,119,134853,362413,119,137872,361899,119,109,,56674,363295,,3402,70457,4309,3402,362412,New experiment,79,200811,98,yes,1024
3000,,Stimuli,81,81,2059,2059,black,no,3124,Mozilla,Netscape,"5.0 (Macintosh; Intel Mac OS X 10_15_7) AppleWebKit/537.36 (KHTML, like Gecko) Chrome/98.0.4758.109 Safari/537.36",psycho,psycho,psycho,0,uniform,1,,,1,1,,0,0,0,0,0,0,0,,0,,,,0,7,0,7,83,83,0,0,0,91,6,0,0,0,0,83,0,6,0,0,6,6,91,None,16/02/2022,16/02/2022,22:58:29,Wed Mar 16 2022 22:58:29 GMT+0000 (Greenwich Mean Time),The main experiment item,yes,,0,0,C:\Users\dcgraham\Downloads,0,0,0,Slide13.jpg,no,mono,no,18,no,white,no,no,768,23058,3.6.1,psycho,psycho,ae2204,osweb,1.4.0,1,yes,621,,0,None,space,space,None,,,,None,None,space,,space,,enter,space,3016,41998,10342,365,,,,3017,3016,4741,,13768,,893,43563,2,psycho,809,1440,30,900,30,106,44,1440,1.64747E+12,1024,2,48000,-16,experiment,18844,even,MacIntel,14661,4313,114022,,119,,,119,119,134853,363813,119,137872,363298,119,109,,56674,366829,,3402,70457,4309,3402,363813,New experiment,80,203827,99,yes,1024
3000,,Stimuli,81,81,2068,2068,black,no,3124,Mozilla,Netscape,"5.0 (Macintosh; Intel Mac OS X 10_15_7) AppleWebKit/537.36 (KHTML, like Gecko) Chrome/98.0.4758.109 Safari/537.36",psycho,psycho,psycho,0,uniform,1,,,1,1,,0,0,0,0,0,0,0,,0,,,,0,7,0,7,84,84,0,0,0,92,6,0,0,0,0,84,0,6,0,0,6,6,92,None,16/02/2022,16/02/2022,22:58:29,Wed Mar 16 2022 22:58:29 GMT+0000 (Greenwich Mean Time),The main experiment item,yes,,0,0,C:\Users\dcgraham\Downloads,0,0,0,Slide7.jpg,no,mono,no,18,no,white,no,no,768,23058,3.6.1,psycho,psycho,ae2204,osweb,1.4.0,1,yes,621,,0,None,space,space,None,,,,None,None,space,,space,,enter,space,3016,41998,10342,365,,,,3017,3016,4741,,13768,,893,43563,2,psycho,809,1440,30,900,30,106,44,1440,1.64747E+12,1024,2,48000,-16,experiment,18844,even,MacIntel,14661,4313,114022,,119,,,119,119,134853,367346,119,137872,366833,119,109,,56674,370362,,3402,70457,4309,3402,367346,New experiment,81,206843,100,yes,1024
infinite,,Target,81,81,2054,2054,black,no,3124,Mozilla,Netscape,"5.0 (Macintosh; Intel Mac OS X 10_15_7) AppleWebKit/537.36 (KHTML, like Gecko) Chrome/98.0.4758.109 Safari/537.36",psycho,psycho,psycho,0,uniform,1,,,1,1,,0,0,0,0,0,0,0,,0,,,,0,7,0,7,85,85,0,0,0,93,6,0,0,0,0,85,0,6,0,0,6,6,93,m,16/02/2022,16/02/2022,22:58:29,Wed Mar 16 2022 22:58:29 GMT+0000 (Greenwich Mean Time),The main experiment item,yes,,0,0,C:\Users\dcgraham\Downloads,0,0,0,Slide15.jpg,no,mono,no,18,no,white,no,no,768,23058,3.6.1,psycho,psycho,ae2204,osweb,1.4.0,1,yes,621,,0,m,space,space,None,,,,None,m,space,,space,,enter,space,646,41998,10342,365,,,,3017,646,4741,,13768,,893,43563,2,psycho,809,1440,30,900,30,106,44,1440,1.64747E+12,1024,2,48000,-16,experiment,18844,even,MacIntel,14661,4313,114022,,119,,,119,119,134853,370878,119,137872,370365,119,109,,56674,371527,,3402,70457,4309,3402,370878,New experiment,82,207489,101,yes,1024
3000,,Stimuli,81,81,2064,2064,black,no,3124,Mozilla,Netscape,"5.0 (Macintosh; Intel Mac OS X 10_15_7) AppleWebKit/537.36 (KHTML, like Gecko) Chrome/98.0.4758.109 Safari/537.36",psycho,psycho,psycho,0,uniform,1,,,1,1,,0,0,0,0,0,0,0,,0,,,,0,7,0,7,86,86,0,0,0,94,6,0,0,0,0,86,0,6,0,0,6,6,94,None,16/02/2022,16/02/2022,22:58:29,Wed Mar 16 2022 22:58:29 GMT+0000 (Greenwich Mean Time),The main experiment item,yes,,0,0,C:\Users\dcgraham\Downloads,0,0,0,Slide8.jpg,no,mono,no,18,no,white,no,no,768,23058,3.6.1,psycho,psycho,ae2204,osweb,1.4.0,1,yes,621,,0,None,space,space,None,,,,None,None,space,,space,,enter,space,3016,41998,10342,365,,,,3017,3016,4741,,13768,,893,43563,2,psycho,809,1440,30,900,30,106,44,1440,1.64747E+12,1024,2,48000,-16,experiment,18844,even,MacIntel,14661,4313,114022,,119,,,119,119,134853,372045,119,137872,371530,119,109,,56674,375061,,3402,70457,4309,3402,372045,New experiment,83,210505,102,yes,1024
3000,,Stimuli,82,82,2073,2073,black,no,3124,Mozilla,Netscape,"5.0 (Macintosh; Intel Mac OS X 10_15_7) AppleWebKit/537.36 (KHTML, like Gecko) Chrome/98.0.4758.109 Safari/537.36",psycho,psycho,psycho,0,uniform,1,,,1,1,,0,0,0,0,0,0,0,,0,,,,0,7,0,7,87,87,0,0,0,95,6,0,0,0,0,87,0,6,0,0,6,6,95,None,16/02/2022,16/02/2022,22:58:29,Wed Mar 16 2022 22:58:29 GMT+0000 (Greenwich Mean Time),The main experiment item,yes,,0,0,C:\Users\dcgraham\Downloads,0,0,0,Slide1.jpg,no,mono,no,18,no,white,no,no,768,23058,3.6.1,psycho,psycho,ae2204,osweb,1.4.0,1,yes,621,,0,None,space,space,None,,,,None,None,space,,space,,enter,space,3015,41998,10342,365,,,,3017,3015,4741,,13768,,893,43563,2,psycho,809,1440,30,900,30,106,44,1440,1.64747E+12,1024,2,48000,-16,experiment,18844,even,MacIntel,14661,4313,114022,,119,,,119,119,134853,375579,119,137872,375064,119,109,,56674,378594,,3402,70457,4309,3402,375579,New experiment,84,213520,103,yes,1024
infinite,,Target,82,82,2059,2059,black,no,3124,Mozilla,Netscape,"5.0 (Macintosh; Intel Mac OS X 10_15_7) AppleWebKit/537.36 (KHTML, like Gecko) Chrome/98.0.4758.109 Safari/537.36",psycho,psycho,psycho,0,uniform,1,,,1,1,,0,0,0,0,0,0,0,,0,,,,0,7,0,7,88,88,0,0,0,96,6,0,0,0,0,88,0,6,0,0,6,6,96,z,16/02/2022,16/02/2022,22:58:29,Wed Mar 16 2022 22:58:29 GMT+0000 (Greenwich Mean Time),The main experiment item,yes,,0,0,C:\Users\dcgraham\Downloads,0,0,0,Slide12.jpg,no,mono,no,18,no,white,no,no,768,23058,3.6.1,psycho,psycho,ae2204,osweb,1.4.0,1,yes,621,,0,z,space,space,None,,,,None,z,space,,space,,enter,space,579,41998,10342,365,,,,3017,579,4741,,13768,,893,43563,2,psycho,809,1440,30,900,30,106,44,1440,1.64747E+12,1024,2,48000,-16,experiment,18844,even,MacIntel,14661,4313,114022,,119,,,119,119,134853,379112,119,137872,378598,119,109,,56674,379694,,3402,70457,4309,3402,379112,New experiment,85,214099,104,yes,1024
3000,,Stimuli,82,82,2068,2068,black,no,3124,Mozilla,Netscape,"5.0 (Macintosh; Intel Mac OS X 10_15_7) AppleWebKit/537.36 (KHTML, like Gecko) Chrome/98.0.4758.109 Safari/537.36",psycho,psycho,psycho,0,uniform,1,,,1,1,,0,0,0,0,0,0,0,,0,,,,0,7,0,7,89,89,0,0,0,97,6,0,0,0,0,89,0,6,0,0,6,6,97,None,16/02/2022,16/02/2022,22:58:29,Wed Mar 16 2022 22:58:29 GMT+0000 (Greenwich Mean Time),The main experiment item,yes,,0,0,C:\Users\dcgraham\Downloads,0,0,0,Slide8.jpg,no,mono,no,18,no,white,no,no,768,23058,3.6.1,psycho,psycho,ae2204,osweb,1.4.0,1,yes,621,,0,None,space,space,None,,,,None,None,space,,space,,enter,space,3016,41998,10342,365,,,,3017,3016,4741,,13768,,893,43563,2,psycho,809,1440,30,900,30,106,44,1440,1.64747E+12,1024,2,48000,-16,experiment,18844,even,MacIntel,14661,4313,114022,,119,,,119,119,134853,380212,119,137872,379696,119,109,,56674,383228,,3402,70457,4309,3402,380212,New experiment,86,217115,105,yes,1024
infinite,,Target,82,82,2053,2053,black,no,3124,Mozilla,Netscape,"5.0 (Macintosh; Intel Mac OS X 10_15_7) AppleWebKit/537.36 (KHTML, like Gecko) Chrome/98.0.4758.109 Safari/537.36",psycho,psycho,psycho,0,uniform,1,,,1,1,,0,0,0,0,0,0,0,,0,,,,0,7,0,7,90,90,0,0,0,98,6,0,0,0,0,90,0,6,0,0,6,6,98,m,16/02/2022,16/02/2022,22:58:29,Wed Mar 16 2022 22:58:29 GMT+0000 (Greenwich Mean Time),The main experiment item,yes,,0,0,C:\Users\dcgraham\Downloads,0,0,0,Slide5.jpg,no,mono,no,18,no,white,no,no,768,23058,3.6.1,psycho,psycho,ae2204,osweb,1.4.0,1,yes,621,,0,m,space,space,None,,,,None,m,space,,space,,enter,space,494,41998,10342,365,,,,3017,494,4741,,13768,,893,43563,2,psycho,809,1440,30,900,30,106,44,1440,1.64747E+12,1024,2,48000,-16,experiment,18844,even,MacIntel,14661,4313,114022,,119,,,119,119,134853,383746,119,137872,383232,119,109,,56674,384245,,3402,70457,4309,3402,383745,New experiment,87,217609,106,yes,1024
3000,,Stimuli,82,82,2062,2062,black,no,3124,Mozilla,Netscape,"5.0 (Macintosh; Intel Mac OS X 10_15_7) AppleWebKit/537.36 (KHTML, like Gecko) Chrome/98.0.4758.109 Safari/537.36",psycho,psycho,psycho,0,uniform,1,,,1,1,,0,0,0,0,0,0,0,,0,,,,0,7,0,7,91,91,0,0,0,99,6,0,0,0,0,91,0,6,0,0,6,6,99,None,16/02/2022,16/02/2022,22:58:29,Wed Mar 16 2022 22:58:29 GMT+0000 (Greenwich Mean Time),The main experiment item,yes,,0,0,C:\Users\dcgraham\Downloads,0,0,0,Slide2.jpg,no,mono,no,18,no,white,no,no,768,23058,3.6.1,psycho,psycho,ae2204,osweb,1.4.0,1,yes,621,,0,None,space,space,None,,,,None,None,space,,space,,enter,space,3015,41998,10342,365,,,,3017,3015,4741,,13768,,893,43563,2,psycho,809,1440,30,900,30,106,44,1440,1.64747E+12,1024,2,48000,-16,experiment,18844,even,MacIntel,14661,4313,114022,,119,,,119,119,134853,384762,119,137872,384249,119,109,,56674,387778,,3402,70457,4309,3402,384762,New experiment,88,220624,107,yes,1024
3000,,Stimuli,82,82,2071,2071,black,no,3124,Mozilla,Netscape,"5.0 (Macintosh; Intel Mac OS X 10_15_7) AppleWebKit/537.36 (KHTML, like Gecko) Chrome/98.0.4758.109 Safari/537.36",psycho,psycho,psycho,0,uniform,1,,,1,1,,0,0,0,0,0,0,0,,0,,,,0,7,0,7,92,92,0,0,0,100,6,0,0,0,0,92,0,6,0,0,6,6,100,None,16/02/2022,16/02/2022,22:58:29,Wed Mar 16 2022 22:58:29 GMT+0000 (Greenwich Mean Time),The main experiment item,yes,,0,0,C:\Users\dcgraham\Downloads,0,0,0,Slide13.jpg,no,mono,no,18,no,white,no,no,768,23058,3.6.1,psycho,psycho,ae2204,osweb,1.4.0,1,yes,621,,0,None,space,space,None,,,,None,None,space,,space,,enter,space,3016,41998,10342,365,,,,3017,3016,4741,,13768,,893,43563,2,psycho,809,1440,30,900,30,106,44,1440,1.64747E+12,1024,2,48000,-16,experiment,18844,even,MacIntel,14661,4313,114022,,119,,,119,119,134853,388295,119,137872,387781,119,109,,56674,391311,,3402,70457,4309,3402,388295,New experiment,89,223640,108,yes,1024
infinite,,Probe,82,82,2067,2067,black,no,3124,Mozilla,Netscape,"5.0 (Macintosh; Intel Mac OS X 10_15_7) AppleWebKit/537.36 (KHTML, like Gecko) Chrome/98.0.4758.109 Safari/537.36",psycho,psycho,psycho,0,uniform,0,,,1,0,,0,0,0,0,0,0,0,,0,,,,0,7,0,7,93,93,0,0,0,101,6,0,0,0,0,93,0,6,0,0,6,6,101,y;n,16/02/2022,16/02/2022,22:58:29,Wed Mar 16 2022 22:58:29 GMT+0000 (Greenwich Mean Time),The main experiment item,yes,,0,0,C:\Users\dcgraham\Downloads,0,0,0,wandering.jpg,no,mono,no,18,no,white,no,no,768,23058,3.6.1,psycho,psycho,ae2204,osweb,1.4.0,1,yes,621,,0,y,space,space,None,,,,None,y,space,,space,,enter,space,1646,41998,10342,365,,,,3017,1646,4741,,13768,,893,43563,2,psycho,809,1440,30,900,30,106,44,1440,1.64747E+12,1024,2,48000,-16,experiment,18844,even,MacIntel,14661,4313,114022,,119,,,119,119,134853,391828,119,137872,391314,119,109,,56674,393483,,3402,70457,4309,3402,391828,New experiment,89,225286,109,yes,1024
3000,Target,Stimuli,82,82,2106,2106,black,no,3124,Mozilla,Netscape,"5.0 (Macintosh; Intel Mac OS X 10_15_7) AppleWebKit/537.36 (KHTML, like Gecko) Chrome/98.0.4758.109 Safari/537.36",psycho,psycho,psycho,0,uniform,1,1,1,1,0,,0,0,0,0,0,0,0,7,0,7,0,0,0,7,0,7,93,93,0,0,0,110,6,0,0,0,0,94,0,6,0,0,6,6,110,None,16/02/2022,16/02/2022,22:58:29,Wed Mar 16 2022 22:58:29 GMT+0000 (Greenwich Mean Time),The main experiment item,yes,,0,0,C:\Users\dcgraham\Downloads,0,0,0,Slide1.jpg,no,mono,no,18,no,white,no,no,768,23058,3.6.1,psycho,psycho,ae2204,osweb,1.4.0,1,yes,621,,0,None,space,space,None,space,m,None,None,y,space,space,space,space,enter,space,3016,41998,10342,365,9861,1860,3016,3017,1646,4741,15164,13768,2276,893,43563,2,psycho,809,1440,30,900,30,106,44,1440,1.64747E+12,1024,2,48000,-16,experiment,18844,even,MacIntel,14661,4313,114022,393484,119,440993,445658,119,119,134853,391828,119,137872,445143,119,109,403361,56674,448675,442858,3402,70457,4309,3402,445658,New experiment,97,248481,118,yes,1024
infinite,Target,Target,82,82,2096,2096,black,no,3124,Mozilla,Netscape,"5.0 (Macintosh; Intel Mac OS X 10_15_7) AppleWebKit/537.36 (KHTML, like Gecko) Chrome/98.0.4758.109 Safari/537.36",psycho,psycho,psycho,0,uniform,1,1,1,1,0,,0,0,0,0,0,0,0,7,0,7,1,1,0,7,0,7,93,93,0,0,0,111,6,0,0,0,0,95,0,6,0,0,6,6,111,m,16/02/2022,16/02/2022,22:58:29,Wed Mar 16 2022 22:58:29 GMT+0000 (Greenwich Mean Time),The main experiment item,yes,,0,0,C:\Users\dcgraham\Downloads,0,0,0,Slide21.jpg,no,mono,no,18,no,white,no,no,768,23058,3.6.1,psycho,psycho,ae2204,osweb,1.4.0,1,yes,621,,0,m,space,space,None,space,m,m,None,y,space,space,space,space,enter,space,1000,41998,10342,365,9861,1860,1000,3017,1646,4741,15164,13768,2276,893,43563,2,psycho,809,1440,30,900,30,106,44,1440,1.64747E+12,1024,2,48000,-16,experiment,18844,even,MacIntel,14661,4313,114022,393484,119,440993,449192,119,119,134853,391828,119,137872,448676,119,109,403361,56674,450208,442858,3402,70457,4309,3402,449192,New experiment,98,249481,119,yes,1024
3000,Target,Stimuli,83,83,2104,2104,black,no,3124,Mozilla,Netscape,"5.0 (Macintosh; Intel Mac OS X 10_15_7) AppleWebKit/537.36 (KHTML, like Gecko) Chrome/98.0.4758.109 Safari/537.36",psycho,psycho,psycho,0,uniform,1,1,1,1,0,,0,0,0,0,0,0,0,7,0,7,2,2,0,7,0,7,93,93,0,0,0,112,6,0,0,0,0,96,0,6,0,0,6,6,112,None,16/02/2022,16/02/2022,22:58:29,Wed Mar 16 2022 22:58:29 GMT+0000 (Greenwich Mean Time),The main experiment item,yes,,0,0,C:\Users\dcgraham\Downloads,0,0,0,Slide2.jpg,no,mono,no,18,no,white,no,no,768,23058,3.6.1,psycho,psycho,ae2204,osweb,1.4.0,1,yes,621,,0,None,space,space,None,space,m,None,None,y,space,space,space,space,enter,space,3017,41998,10342,365,9861,1860,3017,3017,1646,4741,15164,13768,2276,893,43563,2,psycho,809,1440,30,900,30,106,44,1440,1.64747E+12,1024,2,48000,-16,experiment,18844,even,MacIntel,14661,4313,114022,393484,119,440993,450724,119,119,134853,391828,119,137872,450209,119,109,403361,56674,453741,442858,3402,70457,4309,3402,450724,New experiment,99,252498,120,yes,1024
infinite,Target,Target,83,83,2098,2098,black,no,3124,Mozilla,Netscape,"5.0 (Macintosh; Intel Mac OS X 10_15_7) AppleWebKit/537.36 (KHTML, like Gecko) Chrome/98.0.4758.109 Safari/537.36",psycho,psycho,psycho,0,uniform,1,1,1,1,0,,0,0,0,0,0,0,0,7,0,7,3,3,0,7,0,7,93,93,0,0,0,113,6,0,0,0,0,97,0,6,0,0,6,6,113,m,16/02/2022,16/02/2022,22:58:29,Wed Mar 16 2022 22:58:29 GMT+0000 (Greenwich Mean Time),The main experiment item,yes,,0,0,C:\Users\dcgraham\Downloads,0,0,0,Slide20.jpg,no,mono,no,18,no,white,no,no,768,23058,3.6.1,psycho,psycho,ae2204,osweb,1.4.0,1,yes,621,,0,m,space,space,None,space,m,m,None,y,space,space,space,space,enter,space,1371,41998,10342,365,9861,1860,1371,3017,1646,4741,15164,13768,2276,893,43563,2,psycho,809,1440,30,900,30,106,44,1440,1.64747E+12,1024,2,48000,-16,experiment,18844,even,MacIntel,14661,4313,114022,393484,119,440993,454258,119,119,134853,391828,119,137872,453742,119,109,403361,56674,455641,442858,3402,70457,4309,3402,454258,New experiment,100,253869,121,yes,1024
3000,Target,Stimuli,83,83,2106,2106,black,no,3124,Mozilla,Netscape,"5.0 (Macintosh; Intel Mac OS X 10_15_7) AppleWebKit/537.36 (KHTML, like Gecko) Chrome/98.0.4758.109 Safari/537.36",psycho,psycho,psycho,0,uniform,1,1,1,1,0,,0,0,0,0,0,0,0,7,0,7,4,4,0,7,0,7,93,93,0,0,0,114,6,0,0,0,0,98,0,6,0,0,6,6,114,None,16/02/2022,16/02/2022,22:58:29,Wed Mar 16 2022 22:58:29 GMT+0000 (Greenwich Mean Time),The main experiment item,yes,,0,0,C:\Users\dcgraham\Downloads,0,0,0,Slide7.jpg,no,mono,no,18,no,white,no,no,768,23058,3.6.1,psycho,psycho,ae2204,osweb,1.4.0,1,yes,621,,0,None,space,space,None,space,m,None,None,y,space,space,space,space,enter,space,3016,41998,10342,365,9861,1860,3016,3017,1646,4741,15164,13768,2276,893,43563,2,psycho,809,1440,30,900,30,106,44,1440,1.64747E+12,1024,2,48000,-16,experiment,18844,even,MacIntel,14661,4313,114022,393484,119,440993,456158,119,119,134853,391828,119,137872,455642,119,109,403361,56674,459174,442858,3402,70457,4309,3402,456158,New experiment,101,256885,122,yes,1024
3000,Target,Stimuli,83,83,2113,2113,black,no,3124,Mozilla,Netscape,"5.0 (Macintosh; Intel Mac OS X 10_15_7) AppleWebKit/537.36 (KHTML, like Gecko) Chrome/98.0.4758.109 Safari/537.36",psycho,psycho,psycho,0,uniform,1,1,1,1,0,,0,0,0,0,0,0,0,7,0,7,5,5,0,7,0,7,93,93,0,0,0,115,6,0,0,0,0,99,0,6,0,0,6,6,115,None,16/02/2022,16/02/2022,22:58:29,Wed Mar 16 2022 22:58:29 GMT+0000 (Greenwich Mean Time),The main experiment item,yes,,0,0,C:\Users\dcgraham\Downloads,0,0,0,Slide14.jpg,no,mono,no,18,no,white,no,no,768,23058,3.6.1,psycho,psycho,ae2204,osweb,1.4.0,1,yes,621,,0,None,space,space,None,space,m,None,None,y,space,space,space,space,enter,space,3015,41998,10342,365,9861,1860,3015,3017,1646,4741,15164,13768,2276,893,43563,2,psycho,809,1440,30,900,30,106,44,1440,1.64747E+12,1024,2,48000,-16,experiment,18844,even,MacIntel,14661,4313,114022,393484,119,440993,459691,119,119,134853,391828,119,137872,459176,119,109,403361,56674,462707,442858,3402,70457,4309,3402,459691,New experiment,102,259900,123,yes,1024
3000,Target,Stimuli,83,83,2120,2120,black,no,3124,Mozilla,Netscape,"5.0 (Macintosh; Intel Mac OS X 10_15_7) AppleWebKit/537.36 (KHTML, like Gecko) Chrome/98.0.4758.109 Safari/537.36",psycho,psycho,psycho,0,uniform,1,1,1,1,0,,0,0,0,0,0,0,0,7,0,7,6,6,0,7,0,7,93,93,0,0,0,116,6,0,0,0,0,100,0,6,0,0,6,6,116,None,16/02/2022,16/02/2022,22:58:29,Wed Mar 16 2022 22:58:29 GMT+0000 (Greenwich Mean Time),The main experiment item,yes,,0,0,C:\Users\dcgraham\Downloads,0,0,0,Slide8.jpg,no,mono,no,18,no,white,no,no,768,23058,3.6.1,psycho,psycho,ae2204,osweb,1.4.0,1,yes,621,,0,None,space,space,None,space,m,None,None,y,space,space,space,space,enter,space,3014,41998,10342,365,9861,1860,3014,3017,1646,4741,15164,13768,2276,893,43563,2,psycho,809,1440,30,900,30,106,44,1440,1.64747E+12,1024,2,48000,-16,experiment,18844,even,MacIntel,14661,4313,114022,393484,119,440993,463225,119,119,134853,391828,119,137872,462708,119,109,403361,56674,466240,442858,3402,70457,4309,3402,463224,New experiment,103,262914,124,yes,1024
infinite,Target,Target,83,83,2113,2113,black,no,3124,Mozilla,Netscape,"5.0 (Macintosh; Intel Mac OS X 10_15_7) AppleWebKit/537.36 (KHTML, like Gecko) Chrome/98.0.4758.109 Safari/537.36",psycho,psycho,psycho,0,uniform,1,1,1,1,0,,0,0,0,0,0,0,0,7,0,7,7,7,0,7,0,7,93,93,0,0,0,117,6,0,0,0,0,101,0,6,0,0,6,6,117,m,16/02/2022,16/02/2022,22:58:29,Wed Mar 16 2022 22:58:29 GMT+0000 (Greenwich Mean Time),The main experiment item,yes,,0,0,C:\Users\dcgraham\Downloads,0,0,0,Slide21.jpg,no,mono,no,18,no,white,no,no,768,23058,3.6.1,psycho,psycho,ae2204,osweb,1.4.0,1,yes,621,,0,m,space,space,None,space,m,m,None,y,space,space,space,space,enter,space,1157,41998,10342,365,9861,1860,1157,3017,1646,4741,15164,13768,2276,893,43563,2,psycho,809,1440,30,900,30,106,44,1440,1.64747E+12,1024,2,48000,-16,experiment,18844,even,MacIntel,14661,4313,114022,393484,119,440993,466758,119,119,134853,391828,119,137872,466241,119,109,403361,56674,467923,442858,3402,70457,4309,3402,466758,New experiment,104,264071,125,yes,1024
infinite,Target,Probe,83,83,2111,2111,black,no,3124,Mozilla,Netscape,"5.0 (Macintosh; Intel Mac OS X 10_15_7) AppleWebKit/537.36 (KHTML, like Gecko) Chrome/98.0.4758.109 Safari/537.36",psycho,psycho,psycho,0,uniform,0,1,0,1,0,,0,0,0,0,0,0,0,7,0,7,8,8,0,7,0,7,93,93,0,0,0,118,6,0,0,0,0,102,0,6,0,0,6,6,118,y;n,16/02/2022,16/02/2022,22:58:29,Wed Mar 16 2022 22:58:29 GMT+0000 (Greenwich Mean Time),The main experiment item,yes,,0,0,C:\Users\dcgraham\Downloads,0,0,0,wandering.jpg,no,mono,no,18,no,white,no,no,768,23058,3.6.1,psycho,psycho,ae2204,osweb,1.4.0,1,yes,621,,0,y,space,space,None,space,m,y,None,y,space,space,space,space,enter,space,1861,41998,10342,365,9861,1860,1861,3017,1646,4741,15164,13768,2276,893,43563,2,psycho,809,1440,30,900,30,106,44,1440,1.64747E+12,1024,2,48000,-16,experiment,18844,even,MacIntel,14661,4313,114022,393484,119,440993,468441,119,119,134853,391828,119,137872,467924,119,109,403361,56674,470308,442858,3402,70457,4309,3402,468441,New experiment,104,265932,126,yes,1024
3000,Target,Stimuli,83,83,2118,2118,black,no,3124,Mozilla,Netscape,"5.0 (Macintosh; Intel Mac OS X 10_15_7) AppleWebKit/537.36 (KHTML, like Gecko) Chrome/98.0.4758.109 Safari/537.36",psycho,psycho,psycho,0,uniform,1,1,1,1,0,,0,0,0,0,0,0,0,7,0,7,9,9,0,7,0,7,93,93,0,0,0,119,6,0,0,0,0,103,0,6,0,0,6,6,119,None,16/02/2022,16/02/2022,22:58:29,Wed Mar 16 2022 22:58:29 GMT+0000 (Greenwich Mean Time),The main experiment item,yes,,0,0,C:\Users\dcgraham\Downloads,0,0,0,Slide13.jpg,no,mono,no,18,no,white,no,no,768,23058,3.6.1,psycho,psycho,ae2204,osweb,1.4.0,1,yes,621,,0,None,space,space,None,space,m,None,None,y,space,space,space,space,enter,space,3016,41998,10342,365,9861,1860,3016,3017,1646,4741,15164,13768,2276,893,43563,2,psycho,809,1440,30,900,30,106,44,1440,1.64747E+12,1024,2,48000,-16,experiment,18844,even,MacIntel,14661,4313,114022,393484,119,440993,470825,119,119,134853,391828,119,137872,470311,119,109,403361,56674,473841,442858,3402,70457,4309,3402,470825,New experiment,105,268948,127,yes,1024
